"trial_type","trial_index","time_elapsed","internal_node_id","success","rt","stimulus","button_pressed","responses","training_vector","training_matrixRow","key_press","test_part","correct_response","test_number","test_vector","correct","image_switchboard","scene_order","participant","study","session"
"pavlovia","0","13","0.0-0.0","","","","","","","","","","","","","","","","","",""
"fullscreen","1","12482","0.0-1.0","true","","","","","","","","","","","","","","","","",""
"html-button-response","2","22039","0.0-2.0","","9552.59999999404","<p style=""text-align: justify;margin-left: 15%; margin-right:15%"">You are participating in an experiment at the Vision Lab of the Department of Cognitive Science, Central European University.  One of our main questions is what kind of representations we can create about our visual environment and how these representations influence our behavior. At our lab we use multiple methods, for example behavioral experiments and computational models. In this experiment you will observe scenes consisting of abstract shapes and answer simple questions about them. <br><br>At the beginning and throughout the experiment you will receive precise information about what to do. The experiment takes about 25 minutes in total. <br><br>The test is voluntary, and you can withdraw your participation at any time. We treat your personal information confidentially. <br>Only those people who work on this research project have access to your data. We will work with group level statistics. We will only report the results of the group in scientific publications and conferences. This research was approved by the Hungarian Psychological Research Ethics Committee.<br><br>If you have any further questions about the study, you can contact the experimenter, Beata Tunde Szabo, PhD Student. Contact: 1051 Nador u. 11. E-mail: szabo_beata-tunde@phd.ceu.edu <br><br>By pressing the button below you indicate that you read this information, found it sufficent, and you consent to participate in the experiment. <br><br> </p>","0","","","","","","","","","","","","","",""
"survey-html-form","3","33316","0.0-3.0","","11061.5","","","{""Age"":""28"",""gender"":""Male"",""gender_other"":""""}","","","","","","","","","","","","",""
"html-button-response","4","44489","0.0-4.0","","11015.40000000596","<p style=""text-align: justify;margin-left: 15%; margin-right:15%""> This is your practice session. You will see a checkerboard with random simple shapes appearing in different positions in the checkerboard. Your task is simply to observe the patterns so that you would be able to answer some questions about the sequence after the practice session.  The session will last for about 15 minutes.  Please, pay attention to EACH display! <br><br>Occasionally, there will be an attention check asking you to press the spacebar. ","0","","","","","","","","","","","","","",""
"vsl-grid-scene-snap","5","46494","0.0-5.0-0.0-0.0","","","[[""img/obj1.png"",""img/obj6.png"",""img/obj2.png""],[""img/obj8.png"",""img/obj11.png"",0],[""img/obj4.png"",0,0]]","","","1,1,1,2,1,3,2,2,5","4","","","","","","","","","","",""
"vsl-grid-scene-snap","6","49495","0.0-5.0-0.0-1.0","","","[[""img/obj1.png"",0,0],[""img/obj8.png"",""img/obj11.png"",0],[""img/obj4.png"",""img/obj6.png"",""img/obj2.png""]]","","","1,1,1,2,3,3,2,2,5","16","","","","","","","","","","",""
"vsl-grid-scene-snap","7","52515","0.0-5.0-0.0-2.0","","","[[""img/obj1.png"",0,""img/obj11.png""],[""img/obj8.png"",""img/obj4.png"",0],[""img/obj12.png"",""img/obj7.png"",0]]","","","1,1,1,1,3,4,3,1,5","26","","","","","","","","","","",""
"vsl-grid-scene-snap","8","55523","0.0-5.0-0.0-3.0","","","[[""img/obj10.png"",0,0],[0,""img/obj5.png"",""img/obj3.png""],[""img/obj6.png"",""img/obj2.png"",""img/obj9.png""]]","","","3,2,2,1,3,3,1,1,6","137","","","","","","","","","","",""
"vsl-grid-scene-snap","9","58530","0.0-5.0-0.0-4.0","","","[[0,""img/obj11.png"",""img/obj3.png""],[""img/obj4.png"",0,""img/obj9.png""],[0,""img/obj6.png"",""img/obj2.png""]]","","","3,1,2,2,3,3,2,1,5","89","","","","","","","","","","",""
"vsl-grid-scene-snap","10","61537","0.0-5.0-0.0-5.0","","","[[""img/obj10.png"",0,0],[0,""img/obj5.png"",""img/obj1.png""],[""img/obj12.png"",""img/obj7.png"",""img/obj8.png""]]","","","3,2,1,1,3,4,1,1,6","138","","","","","","","","","","",""
"vsl-grid-scene-snap","11","64572","0.0-5.0-0.0-6.0","","","[[""img/obj10.png"",0,""img/obj3.png""],[0,""img/obj5.png"",""img/obj9.png""],[0,""img/obj12.png"",""img/obj7.png""]]","","","3,1,2,2,3,4,1,1,6","95","","","","","","","","","","",""
"vsl-grid-scene-snap","12","67603","0.0-5.0-0.0-7.0","","","[[0,0,""img/obj3.png""],[0,""img/obj10.png"",""img/obj9.png""],[""img/obj12.png"",""img/obj7.png"",""img/obj5.png""]]","","","3,1,2,1,3,4,2,2,6","107","","","","","","","","","","",""
"vsl-grid-scene-snap","13","70622","0.0-5.0-0.0-8.0","","","[[""img/obj12.png"",""img/obj7.png"",0],[""img/obj3.png"",""img/obj10.png"",0],[""img/obj9.png"",0,""img/obj5.png""]]","","","1,2,2,1,1,4,2,2,6","71","","","","","","","","","","",""
"vsl-grid-scene-snap","14","73638","0.0-5.0-0.0-9.0","","","[[0,0,""img/obj11.png""],[0,""img/obj4.png"",""img/obj1.png""],[""img/obj12.png"",""img/obj7.png"",""img/obj8.png""]]","","","3,2,1,1,3,4,3,1,5","142","","","","","","","","","","",""
"vsl-grid-scene-snap","15","76672","0.0-5.0-0.0-10.0","","","[[0,""img/obj12.png"",""img/obj7.png""],[0,""img/obj11.png"",""img/obj1.png""],[""img/obj4.png"",0,""img/obj8.png""]]","","","3,2,1,2,1,4,2,2,5","122","","","","","","","","","","",""
"vsl-grid-scene-snap","16","79704","0.0-5.0-0.0-11.0","","","[[0,""img/obj12.png"",""img/obj7.png""],[""img/obj1.png"",0,""img/obj11.png""],[""img/obj8.png"",""img/obj4.png"",0]]","","","1,2,1,2,1,4,3,2,5","38","","","","","","","","","","",""
"vsl-grid-scene-snap","17","82751","0.0-5.0-0.0-12.0","","","[[""img/obj3.png"",0,""img/obj11.png""],[""img/obj9.png"",""img/obj4.png"",0],[0,""img/obj6.png"",""img/obj2.png""]]","","","1,1,2,2,3,3,3,1,5","13","","","","","","","","","","",""
"vsl-grid-scene-snap","18","85843","0.0-5.0-0.0-13.0","","","[[""img/obj10.png"",0,0],[0,""img/obj5.png"",""img/obj1.png""],[""img/obj6.png"",""img/obj2.png"",""img/obj8.png""]]","","","3,2,1,1,3,3,1,1,6","136","","","","","","","","","","",""
"vsl-grid-scene-snap","19","88863","0.0-5.0-0.0-14.0","","","[[""img/obj3.png"",""img/obj12.png"",""img/obj7.png""],[""img/obj9.png"",0,""img/obj11.png""],[0,""img/obj4.png"",0]]","","","1,1,2,2,1,4,3,2,5","3","","","","","","","","","","",""
"vsl-grid-scene-snap","20","91876","0.0-5.0-0.0-15.0","","","[[0,0,""img/obj1.png""],[0,""img/obj11.png"",""img/obj8.png""],[""img/obj4.png"",""img/obj6.png"",""img/obj2.png""]]","","","3,1,1,2,3,3,2,2,5","84","","","","","","","","","","",""
"vsl-grid-scene-snap","21","94895","0.0-5.0-0.0-16.0","","","[[""img/obj10.png"",0,""img/obj3.png""],[0,""img/obj5.png"",""img/obj9.png""],[0,""img/obj6.png"",""img/obj2.png""]]","","","3,1,2,2,3,3,1,1,6","93","","","","","","","","","","",""
"vsl-grid-scene-snap","22","97912","0.0-5.0-0.0-17.0","","","[[0,""img/obj12.png"",""img/obj7.png""],[""img/obj3.png"",""img/obj10.png"",0],[""img/obj9.png"",0,""img/obj5.png""]]","","","1,2,2,2,1,4,2,2,6","47","","","","","","","","","","",""
"vsl-grid-scene-snap","23","100932","0.0-5.0-0.0-18.0","","","[[0,""img/obj11.png"",""img/obj1.png""],[""img/obj4.png"",0,""img/obj8.png""],[0,""img/obj6.png"",""img/obj2.png""]]","","","3,1,1,2,3,3,2,1,5","88","","","","","","","","","","",""
"vsl-grid-scene-snap","24","103988","0.0-5.0-0.0-19.0","","","[[""img/obj6.png"",""img/obj2.png"",0],[""img/obj3.png"",""img/obj10.png"",0],[""img/obj9.png"",0,""img/obj5.png""]]","","","1,2,2,1,1,3,2,2,6","69","","","","","","","","","","",""
"vsl-grid-scene-snap","25","107125","0.0-5.0-0.0-20.0","","","[[""img/obj10.png"",0,0],[""img/obj3.png"",""img/obj5.png"",0],[""img/obj9.png"",""img/obj6.png"",""img/obj2.png""]]","","","1,2,2,2,3,3,1,1,6","57","","","","","","","","","","",""
"vsl-grid-scene-snap","26","110158","0.0-5.0-0.0-21.0","","","[[""img/obj1.png"",""img/obj12.png"",""img/obj7.png""],[""img/obj8.png"",0,""img/obj11.png""],[0,""img/obj4.png"",0]]","","","1,1,1,2,1,4,3,2,5","2","","","","","","","","","","",""
"vsl-grid-scene-snap","27","113188","0.0-5.0-0.0-22.0","","","[[0,0,""img/obj11.png""],[0,""img/obj4.png"",""img/obj3.png""],[""img/obj12.png"",""img/obj7.png"",""img/obj9.png""]]","","","3,2,2,1,3,4,3,1,5","143","","","","","","","","","","",""
"vsl-grid-scene-snap","28","116269","0.0-5.0-0.0-23.0","","","[[""img/obj12.png"",""img/obj7.png"",""img/obj11.png""],[""img/obj1.png"",""img/obj4.png"",0],[""img/obj8.png"",0,0]]","","","1,2,1,1,1,4,3,1,5","66","","","","","","","","","","",""
"vsl-grid-scene-snap","29","119285","0.0-5.0-0.0-24.0","","","[[0,""img/obj6.png"",""img/obj2.png""],[""img/obj3.png"",""img/obj10.png"",0],[""img/obj9.png"",0,""img/obj5.png""]]","","","1,2,2,2,1,3,2,2,6","45","","","","","","","","","","",""
"vsl-grid-scene-snap","30","122302","0.0-5.0-0.0-25.0","","","[[0,""img/obj11.png"",""img/obj1.png""],[""img/obj4.png"",0,""img/obj8.png""],[0,""img/obj12.png"",""img/obj7.png""]]","","","3,1,1,2,3,4,2,1,5","90","","","","","","","","","","",""
"vsl-grid-scene-snap","31","125304","0.0-5.0-0.0-26.0","","","[[0,0,""img/obj3.png""],[0,""img/obj10.png"",""img/obj9.png""],[""img/obj6.png"",""img/obj2.png"",""img/obj5.png""]]","","","3,1,2,1,3,3,2,2,6","105","","","","","","","","","","",""
"vsl-grid-scene-snap","32","128307","0.0-5.0-0.0-27.0","","","[[0,0,""img/obj1.png""],[0,""img/obj10.png"",""img/obj8.png""],[""img/obj12.png"",""img/obj7.png"",""img/obj5.png""]]","","","3,1,1,1,3,4,2,2,6","106","","","","","","","","","","",""
"vsl-grid-scene-snap","33","131311","0.0-5.0-0.0-28.0","","","[[0,0,""img/obj3.png""],[0,""img/obj11.png"",""img/obj9.png""],[""img/obj4.png"",""img/obj6.png"",""img/obj2.png""]]","","","3,1,2,2,3,3,2,2,5","85","","","","","","","","","","",""
"vsl-grid-scene-snap","34","134313","0.0-5.0-0.0-29.0","","","[[""img/obj6.png"",""img/obj2.png"",0],[""img/obj3.png"",0,""img/obj11.png""],[""img/obj9.png"",""img/obj4.png"",0]]","","","1,2,2,1,1,3,3,2,5","61","","","","","","","","","","",""
"vsl-grid-scene-snap","35","137331","0.0-5.0-0.0-30.0","","","[[0,0,""img/obj3.png""],[0,""img/obj11.png"",""img/obj9.png""],[""img/obj4.png"",""img/obj12.png"",""img/obj7.png""]]","","","3,1,2,2,3,4,2,2,5","87","","","","","","","","","","",""
"vsl-grid-scene-snap","36","140357","0.0-5.0-0.0-31.0","","","[[""img/obj3.png"",""img/obj10.png"",0],[""img/obj9.png"",0,""img/obj5.png""],[""img/obj12.png"",""img/obj7.png"",0]]","","","1,1,2,1,3,4,2,1,6","31","","","","","","","","","","",""
"vsl-grid-scene-snap","37","143368","0.0-5.0-0.0-32.0","","","[[""img/obj10.png"",0,0],[""img/obj1.png"",""img/obj5.png"",0],[""img/obj8.png"",""img/obj12.png"",""img/obj7.png""]]","","","1,2,1,2,3,4,1,1,6","58","","","","","","","","","","",""
"vsl-grid-scene-snap","38","146379","0.0-5.0-0.0-33.0","","","[[0,""img/obj6.png"",""img/obj2.png""],[""img/obj10.png"",0,""img/obj1.png""],[0,""img/obj5.png"",""img/obj8.png""]]","","","3,2,1,2,1,3,1,2,6","124","","","","","","","","","","",""
"vsl-grid-scene-snap","39","149390","0.0-5.0-0.0-34.0","","","[[""img/obj3.png"",0,0],[""img/obj9.png"",""img/obj11.png"",0],[""img/obj4.png"",""img/obj6.png"",""img/obj2.png""]]","","","1,1,2,2,3,3,2,2,5","17","","","","","","","","","","",""
"vsl-grid-scene-snap","40","152398","0.0-5.0-0.0-35.0","","","[[""img/obj3.png"",""img/obj10.png"",0],[""img/obj9.png"",0,""img/obj5.png""],[""img/obj6.png"",""img/obj2.png"",0]]","","","1,1,2,1,3,3,2,1,6","29","","","","","","","","","","",""
"vsl-grid-scene-snap","41","155409","0.0-5.0-0.0-36.0","","","[[""img/obj10.png"",0,0],[""img/obj3.png"",""img/obj5.png"",0],[""img/obj9.png"",""img/obj12.png"",""img/obj7.png""]]","","","1,2,2,2,3,4,1,1,6","59","","","","","","","","","","",""
"vsl-grid-scene-snap","42","158420","0.0-5.0-0.0-37.0","","","[[""img/obj12.png"",""img/obj7.png"",0],[""img/obj1.png"",0,""img/obj11.png""],[""img/obj8.png"",""img/obj4.png"",0]]","","","1,2,1,1,1,4,3,2,5","62","","","","","","","","","","",""
"vsl-grid-scene-snap","43","161431","0.0-5.0-0.0-38.0","","","[[""img/obj12.png"",""img/obj7.png"",0],[""img/obj10.png"",0,""img/obj3.png""],[0,""img/obj5.png"",""img/obj9.png""]]","","","3,2,2,1,1,4,1,2,6","115","","","","","","","","","","",""
"vsl-grid-scene-snap","44","164441","0.0-5.0-0.0-39.0","","","[[0,""img/obj10.png"",0],[""img/obj3.png"",0,""img/obj5.png""],[""img/obj9.png"",""img/obj12.png"",""img/obj7.png""]]","","","1,2,2,2,3,4,2,1,6","55","","","","","","","","","","",""
"vsl-grid-scene-snap","45","167453","0.0-5.0-0.0-40.0","","","[[0,0,""img/obj11.png""],[0,""img/obj4.png"",""img/obj1.png""],[""img/obj6.png"",""img/obj2.png"",""img/obj8.png""]]","","","3,2,1,1,3,3,3,1,5","140","","","","","","","","","","",""
"vsl-grid-scene-snap","46","170462","0.0-5.0-0.0-41.0","","","[[""img/obj6.png"",""img/obj2.png"",""img/obj3.png""],[""img/obj10.png"",0,""img/obj9.png""],[0,""img/obj5.png"",0]]","","","3,1,2,1,1,3,1,2,6","77","","","","","","","","","","",""
"vsl-grid-scene-snap","47","173505","0.0-5.0-0.0-42.0","","","[[""img/obj6.png"",""img/obj2.png"",""img/obj1.png""],[""img/obj10.png"",0,""img/obj8.png""],[0,""img/obj5.png"",0]]","","","3,1,1,1,1,3,1,2,6","76","","","","","","","","","","",""
"vsl-grid-scene-snap","48","176514","0.0-5.0-0.0-43.0","","","[[""img/obj10.png"",""img/obj6.png"",""img/obj2.png""],[0,""img/obj5.png"",""img/obj3.png""],[0,0,""img/obj9.png""]]","","","3,2,2,2,1,3,1,1,6","129","","","","","","","","","","",""
"vsl-grid-scene-snap","49","179562","0.0-5.0-0.0-44.0","","","[[0,""img/obj11.png"",0],[""img/obj4.png"",0,""img/obj3.png""],[""img/obj12.png"",""img/obj7.png"",""img/obj9.png""]]","","","3,2,2,1,3,4,2,1,5","135","","","","","","","","","","",""
"vsl-grid-scene-snap","50","182584","0.0-5.0-0.0-45.0","","","[[0,""img/obj6.png"",""img/obj2.png""],[""img/obj1.png"",0,""img/obj11.png""],[""img/obj8.png"",""img/obj4.png"",0]]","","","1,2,1,2,1,3,3,2,5","36","","","","","","","","","","",""
"vsl-grid-scene-snap","51","185592","0.0-5.0-0.0-46.0","","","[[""img/obj12.png"",""img/obj7.png"",""img/obj1.png""],[0,""img/obj11.png"",""img/obj8.png""],[""img/obj4.png"",0,0]]","","","3,1,1,1,1,4,2,2,5","74","","","","","","","","","","",""
"vsl-grid-scene-snap","52","188611","0.0-5.0-0.0-47.0","","","[[0,""img/obj11.png"",""img/obj3.png""],[""img/obj4.png"",0,""img/obj9.png""],[""img/obj6.png"",""img/obj2.png"",0]]","","","3,1,2,1,3,3,2,1,5","97","","","","","","","","","","",""
"vsl-grid-attention-check","53","192636","0.0-5.0-1.0-0.0-0.0","","null","[[0,""img/square.png"",0],[0,""img/attention.png"",""img/square.png""],[""img/square.png"",""img/square.png"",""img/square.png""]]","","","","","null","","","","","","","","","",""
"vsl-grid-attention-check","54","195649","0.0-5.0-1.0-0.1-0.1","","null","[[""img/square.png"",""img/square.png"",0],[""img/square.png"",""img/attention.png"",""img/square.png""],[""img/square.png"",0,0]]","","","","","null","","","","","","","","","",""
"vsl-grid-attention-check","55","198653","0.0-5.0-1.0-0.2-0.2","","null","[[""img/square.png"",0,0],[""img/square.png"",""img/attention.png"",""img/square.png""],[0,""img/square.png"",""img/square.png""]]","","","","","null","","","","","","","","","",""
"vsl-grid-attention-check","56","201664","0.0-5.0-1.0-0.3-0.3","","null","[[""img/square.png"",""img/square.png"",0],[""img/square.png"",""img/attention.png"",0],[""img/square.png"",""img/square.png"",0]]","","","","","null","","","","","","","","","",""
"vsl-grid-attention-check","57","204685","0.0-5.0-1.0-0.4-0.4","","null","[[0,""img/square.png"",""img/square.png""],[""img/square.png"",""img/attention.png"",""img/square.png""],[0,""img/square.png"",0]]","","","","","null","","","","","","","","","",""
"vsl-grid-attention-check","58","207702","0.0-5.0-1.0-0.5-0.5","","null","[[""img/square.png"",0,0],[""img/square.png"",""img/attention.png"",0],[""img/square.png"",""img/square.png"",""img/square.png""]]","","","","","null","","","","","","","","","",""
"vsl-grid-attention-check","59","210726","0.0-5.0-1.0-0.6-0.6","","null","[[""img/square.png"",""img/square.png"",""img/square.png""],[0,""img/attention.png"",""img/square.png""],[""img/square.png"",0,0]]","","","","","null","","","","","","","","","",""
"vsl-grid-attention-check","60","213730","0.0-5.0-1.0-0.7-0.7","","null","[[""img/square.png"",0,0],[""img/square.png"",""img/attention.png"",""img/square.png""],[""img/square.png"",""img/square.png"",0]]","","","","","null","","","","","","","","","",""
"vsl-grid-attention-check","61","216746","0.0-5.0-1.0-0.8-0.8","","null","[[""img/square.png"",0,""img/square.png""],[0,""img/attention.png"",0],[""img/square.png"",""img/square.png"",""img/square.png""]]","","","","","null","","","","","","","","","",""
"vsl-grid-attention-check","62","219759","0.0-5.0-1.0-0.9-0.9","","null","[[""img/square.png"",0,""img/square.png""],[""img/square.png"",""img/attention.png"",0],[0,""img/square.png"",""img/square.png""]]","","","","","null","","","","","","","","","",""
"vsl-grid-attention-check","63","222767","0.0-5.0-1.0-0.10-0.10","","null","[[""img/square.png"",""img/square.png"",0],[""img/square.png"",""img/attention.png"",""img/square.png""],[0,0,""img/square.png""]]","","","","","null","","","","","","","","","",""
"vsl-grid-attention-check","64","225780","0.0-5.0-1.0-0.11-0.11","","null","[[""img/square.png"",""img/square.png"",0],[0,""img/attention.png"",0],[""img/square.png"",""img/square.png"",""img/square.png""]]","","","","","null","","","","","","","","","",""
"vsl-grid-attention-check","65","228784","0.0-5.0-1.0-0.12-0.12","","null","[[""img/square.png"",0,0],[""img/square.png"",""img/attention.png"",""img/square.png""],[""img/square.png"",""img/square.png"",0]]","","","","","null","","","","","","","","","",""
"vsl-grid-attention-check","66","231793","0.0-5.0-1.0-0.13-0.13","","null","[[0,""img/square.png"",""img/square.png""],[""img/square.png"",""img/attention.png"",""img/square.png""],[0,""img/square.png"",0]]","","","","","null","","","","","","","","","",""
"vsl-grid-attention-check","67","234810","0.0-5.0-1.0-0.14-0.14","","null","[[""img/square.png"",0,""img/square.png""],[""img/square.png"",""img/attention.png"",""img/square.png""],[0,0,""img/square.png""]]","","","","","null","","","","","","","","","",""
"vsl-grid-attention-check","68","237819","0.0-5.0-1.0-0.15-0.15","","null","[[""img/square.png"",0,""img/square.png""],[""img/square.png"",""img/attention.png"",0],[""img/square.png"",0,""img/square.png""]]","","","","","null","","","","","","","","","",""
"vsl-grid-attention-check","69","240823","0.0-5.0-1.0-0.16-0.16","","null","[[""img/square.png"",""img/square.png"",""img/square.png""],[0,""img/attention.png"",""img/square.png""],[0,0,""img/square.png""]]","","","","","null","","","","","","","","","",""
"vsl-grid-attention-check","70","243838","0.0-5.0-1.0-0.17-0.17","","null","[[""img/square.png"",""img/square.png"",0],[""img/square.png"",""img/attention.png"",0],[""img/square.png"",""img/square.png"",0]]","","","","","null","","","","","","","","","",""
"vsl-grid-attention-check","71","246849","0.0-5.0-1.0-0.18-0.18","","null","[[0,0,""img/square.png""],[0,""img/attention.png"",""img/square.png""],[""img/square.png"",""img/square.png"",""img/square.png""]]","","","","","null","","","","","","","","","",""
"vsl-grid-attention-check","72","249854","0.0-5.0-1.0-0.19-0.19","","null","[[0,""img/square.png"",""img/square.png""],[""img/square.png"",""img/attention.png"",""img/square.png""],[0,""img/square.png"",0]]","","","","","null","","","","","","","","","",""
"vsl-grid-attention-check","73","251015","0.0-5.0-1.0-0.20-0.20","","1157.5","[[0,""img/square.png"",0],[""img/square.png"",""img/attention.png"",""img/square.png""],[0,""img/square.png"",""img/square.png""]]","","","","","32","","","","","","","","","",""
"html-keyboard-response","74","252030","0.0-5.0-1.0-1.0","","null"," ","","","","","null","","","","","","","","","",""
"vsl-grid-scene-snap","75","254048","0.0-5.0-2.0-0.0","","","[[""img/obj3.png"",0,""img/obj11.png""],[""img/obj9.png"",""img/obj4.png"",0],[""img/obj12.png"",""img/obj7.png"",0]]","","","1,1,2,1,3,4,3,1,5","27","","","","","","","","","","",""
"vsl-grid-scene-snap","76","257054","0.0-5.0-2.0-1.0","","","[[""img/obj10.png"",""img/obj12.png"",""img/obj7.png""],[0,""img/obj5.png"",""img/obj3.png""],[0,0,""img/obj9.png""]]","","","3,2,2,2,1,4,1,1,6","131","","","","","","","","","","",""
"vsl-grid-scene-snap","77","260068","0.0-5.0-2.0-2.0","","","[[""img/obj10.png"",""img/obj6.png"",""img/obj2.png""],[""img/obj3.png"",""img/obj5.png"",0],[""img/obj9.png"",0,0]]","","","1,2,2,2,1,3,1,1,6","41","","","","","","","","","","",""
"vsl-grid-scene-snap","78","263076","0.0-5.0-2.0-3.0","","","[[""img/obj6.png"",""img/obj2.png"",0],[""img/obj10.png"",0,""img/obj1.png""],[0,""img/obj5.png"",""img/obj8.png""]]","","","3,2,1,1,1,3,1,2,6","112","","","","","","","","","","",""
"vsl-grid-scene-snap","79","266116","0.0-5.0-2.0-4.0","","","[[""img/obj1.png"",""img/obj6.png"",""img/obj2.png""],[""img/obj8.png"",0,""img/obj11.png""],[0,""img/obj4.png"",0]]","","","1,1,1,2,1,3,3,2,5","0","","","","","","","","","","",""
"vsl-grid-scene-snap","80","269134","0.0-5.0-2.0-5.0","","","[[""img/obj12.png"",""img/obj7.png"",""img/obj1.png""],[0,""img/obj10.png"",""img/obj8.png""],[0,0,""img/obj5.png""]]","","","3,1,1,1,1,4,2,2,6","82","","","","","","","","","","",""
"vsl-grid-scene-snap","81","272149","0.0-5.0-2.0-6.0","","","[[""img/obj6.png"",""img/obj2.png"",""img/obj1.png""],[0,""img/obj11.png"",""img/obj8.png""],[""img/obj4.png"",0,0]]","","","3,1,1,1,1,3,2,2,5","72","","","","","","","","","","",""
"vsl-grid-scene-snap","82","275157","0.0-5.0-2.0-7.0","","","[[""img/obj3.png"",0,0],[""img/obj9.png"",""img/obj10.png"",0],[""img/obj12.png"",""img/obj7.png"",""img/obj5.png""]]","","","1,1,2,1,3,4,2,2,6","35","","","","","","","","","","",""
"vsl-grid-scene-snap","83","278195","0.0-5.0-2.0-8.0","","","[[""img/obj10.png"",0,0],[0,""img/obj5.png"",""img/obj3.png""],[""img/obj12.png"",""img/obj7.png"",""img/obj9.png""]]","","","3,2,2,1,3,4,1,1,6","139","","","","","","","","","","",""
"vsl-grid-scene-snap","84","281200","0.0-5.0-2.0-9.0","","","[[""img/obj1.png"",""img/obj12.png"",""img/obj7.png""],[""img/obj8.png"",""img/obj10.png"",0],[0,0,""img/obj5.png""]]","","","1,1,1,2,1,4,2,2,6","10","","","","","","","","","","",""
"vsl-grid-scene-snap","85","284216","0.0-5.0-2.0-10.0","","","[[""img/obj10.png"",0,""img/obj1.png""],[0,""img/obj5.png"",""img/obj8.png""],[""img/obj6.png"",""img/obj2.png"",0]]","","","3,1,1,1,3,3,1,1,6","100","","","","","","","","","","",""
"vsl-grid-scene-snap","86","287219","0.0-5.0-2.0-11.0","","","[[""img/obj6.png"",""img/obj2.png"",0],[""img/obj1.png"",0,""img/obj11.png""],[""img/obj8.png"",""img/obj4.png"",0]]","","","1,2,1,1,1,3,3,2,5","60","","","","","","","","","","",""
"vsl-grid-scene-snap","87","290234","0.0-5.0-2.0-12.0","","","[[""img/obj10.png"",0,""img/obj3.png""],[0,""img/obj5.png"",""img/obj9.png""],[""img/obj12.png"",""img/obj7.png"",0]]","","","3,1,2,1,3,4,1,1,6","103","","","","","","","","","","",""
"vsl-grid-scene-snap","88","293254","0.0-5.0-2.0-13.0","","","[[""img/obj12.png"",""img/obj7.png"",""img/obj3.png""],[""img/obj10.png"",0,""img/obj9.png""],[0,""img/obj5.png"",0]]","","","3,1,2,1,1,4,1,2,6","79","","","","","","","","","","",""
"vsl-grid-scene-snap","89","296259","0.0-5.0-2.0-14.0","","","[[0,""img/obj12.png"",""img/obj7.png""],[""img/obj10.png"",0,""img/obj3.png""],[0,""img/obj5.png"",""img/obj9.png""]]","","","3,2,2,2,1,4,1,2,6","127","","","","","","","","","","",""
"vsl-grid-scene-snap","90","299270","0.0-5.0-2.0-15.0","","","[[""img/obj12.png"",""img/obj7.png"",""img/obj11.png""],[""img/obj3.png"",""img/obj4.png"",0],[""img/obj9.png"",0,0]]","","","1,2,2,1,1,4,3,1,5","67","","","","","","","","","","",""
"vsl-grid-scene-snap","91","302279","0.0-5.0-2.0-16.0","","","[[0,""img/obj6.png"",""img/obj2.png""],[0,""img/obj11.png"",""img/obj1.png""],[""img/obj4.png"",0,""img/obj8.png""]]","","","3,2,1,2,1,3,2,2,5","120","","","","","","","","","","",""
"vsl-grid-scene-snap","92","305288","0.0-5.0-2.0-17.0","","","[[""img/obj12.png"",""img/obj7.png"",""img/obj11.png""],[0,""img/obj4.png"",""img/obj3.png""],[0,0,""img/obj9.png""]]","","","3,2,2,1,1,4,3,1,5","119","","","","","","","","","","",""
"vsl-grid-scene-snap","93","308297","0.0-5.0-2.0-18.0","","","[[""img/obj1.png"",""img/obj6.png"",""img/obj2.png""],[""img/obj8.png"",""img/obj10.png"",0],[0,0,""img/obj5.png""]]","","","1,1,1,2,1,3,2,2,6","8","","","","","","","","","","",""
"vsl-grid-scene-snap","94","311305","0.0-5.0-2.0-19.0","","","[[0,0,""img/obj1.png""],[0,""img/obj11.png"",""img/obj8.png""],[""img/obj4.png"",""img/obj12.png"",""img/obj7.png""]]","","","3,1,1,2,3,4,2,2,5","86","","","","","","","","","","",""
"vsl-grid-scene-snap","95","314324","0.0-5.0-2.0-20.0","","","[[""img/obj12.png"",""img/obj7.png"",0],[""img/obj10.png"",0,""img/obj1.png""],[0,""img/obj5.png"",""img/obj8.png""]]","","","3,2,1,1,1,4,1,2,6","114","","","","","","","","","","",""
"vsl-grid-scene-snap","96","317348","0.0-5.0-2.0-21.0","","","[[""img/obj12.png"",""img/obj7.png"",0],[""img/obj1.png"",""img/obj10.png"",0],[""img/obj8.png"",0,""img/obj5.png""]]","","","1,2,1,1,1,4,2,2,6","70","","","","","","","","","","",""
"vsl-grid-scene-snap","97","320356","0.0-5.0-2.0-22.0","","","[[0,0,""img/obj11.png""],[""img/obj3.png"",""img/obj4.png"",0],[""img/obj9.png"",""img/obj6.png"",""img/obj2.png""]]","","","1,2,2,2,3,3,3,1,5","49","","","","","","","","","","",""
"vsl-grid-scene-snap","98","323372","0.0-5.0-2.0-23.0","","","[[0,0,""img/obj11.png""],[""img/obj1.png"",""img/obj4.png"",0],[""img/obj8.png"",""img/obj6.png"",""img/obj2.png""]]","","","1,2,1,2,3,3,3,1,5","48","","","","","","","","","","",""
"vsl-grid-scene-snap","99","326383","0.0-5.0-2.0-24.0","","","[[0,""img/obj11.png"",""img/obj1.png""],[""img/obj4.png"",0,""img/obj8.png""],[""img/obj12.png"",""img/obj7.png"",0]]","","","3,1,1,1,3,4,2,1,5","98","","","","","","","","","","",""
"vsl-grid-scene-snap","100","329402","0.0-5.0-2.0-25.0","","","[[""img/obj10.png"",0,""img/obj3.png""],[0,""img/obj5.png"",""img/obj9.png""],[""img/obj6.png"",""img/obj2.png"",0]]","","","3,1,2,1,3,3,1,1,6","101","","","","","","","","","","",""
"vsl-grid-scene-snap","101","332412","0.0-5.0-2.0-26.0","","","[[""img/obj3.png"",""img/obj6.png"",""img/obj2.png""],[""img/obj9.png"",""img/obj10.png"",0],[0,0,""img/obj5.png""]]","","","1,1,2,2,1,3,2,2,6","9","","","","","","","","","","",""
"vsl-grid-scene-snap","102","335436","0.0-5.0-2.0-27.0","","","[[""img/obj10.png"",""img/obj6.png"",""img/obj2.png""],[0,""img/obj5.png"",""img/obj1.png""],[0,0,""img/obj8.png""]]","","","3,2,1,2,1,3,1,1,6","128","","","","","","","","","","",""
"vsl-grid-scene-snap","103","338450","0.0-5.0-2.0-28.0","","","[[0,0,""img/obj11.png""],[""img/obj1.png"",""img/obj4.png"",0],[""img/obj8.png"",""img/obj12.png"",""img/obj7.png""]]","","","1,2,1,2,3,4,3,1,5","50","","","","","","","","","","",""
"vsl-grid-scene-snap","104","341454","0.0-5.0-2.0-29.0","","","[[0,""img/obj11.png"",""img/obj3.png""],[""img/obj4.png"",0,""img/obj9.png""],[0,""img/obj12.png"",""img/obj7.png""]]","","","3,1,2,2,3,4,2,1,5","91","","","","","","","","","","",""
"vsl-grid-scene-snap","105","344465","0.0-5.0-2.0-30.0","","","[[""img/obj12.png"",""img/obj7.png"",0],[0,""img/obj11.png"",""img/obj3.png""],[""img/obj4.png"",0,""img/obj9.png""]]","","","3,2,2,1,1,4,2,2,5","111","","","","","","","","","","",""
"vsl-grid-scene-snap","106","347472","0.0-5.0-2.0-31.0","","","[[""img/obj6.png"",""img/obj2.png"",0],[0,""img/obj11.png"",""img/obj3.png""],[""img/obj4.png"",0,""img/obj9.png""]]","","","3,2,2,1,1,3,2,2,5","109","","","","","","","","","","",""
"vsl-grid-scene-snap","107","350497","0.0-5.0-2.0-32.0","","","[[""img/obj10.png"",0,0],[""img/obj1.png"",""img/obj5.png"",0],[""img/obj8.png"",""img/obj6.png"",""img/obj2.png""]]","","","1,2,1,2,3,3,1,1,6","56","","","","","","","","","","",""
"vsl-grid-scene-snap","108","353511","0.0-5.0-2.0-33.0","","","[[""img/obj3.png"",0,0],[""img/obj9.png"",""img/obj10.png"",0],[""img/obj6.png"",""img/obj2.png"",""img/obj5.png""]]","","","1,1,2,1,3,3,2,2,6","33","","","","","","","","","","",""
"vsl-grid-scene-snap","109","356529","0.0-5.0-2.0-34.0","","","[[""img/obj12.png"",""img/obj7.png"",""img/obj11.png""],[0,""img/obj4.png"",""img/obj1.png""],[0,0,""img/obj8.png""]]","","","3,2,1,1,1,4,3,1,5","118","","","","","","","","","","",""
"vsl-grid-scene-snap","110","359545","0.0-5.0-2.0-35.0","","","[[""img/obj1.png"",0,""img/obj11.png""],[""img/obj8.png"",""img/obj4.png"",0],[""img/obj6.png"",""img/obj2.png"",0]]","","","1,1,1,1,3,3,3,1,5","24","","","","","","","","","","",""
"vsl-grid-scene-snap","111","362566","0.0-5.0-2.0-36.0","","","[[""img/obj12.png"",""img/obj7.png"",""img/obj1.png""],[""img/obj10.png"",0,""img/obj8.png""],[0,""img/obj5.png"",0]]","","","3,1,1,1,1,4,1,2,6","78","","","","","","","","","","",""
"vsl-grid-scene-snap","112","365580","0.0-5.0-2.0-37.0","","","[[""img/obj3.png"",""img/obj6.png"",""img/obj2.png""],[""img/obj9.png"",0,""img/obj11.png""],[0,""img/obj4.png"",0]]","","","1,1,2,2,1,3,3,2,5","1","","","","","","","","","","",""
"vsl-grid-scene-snap","113","368584","0.0-5.0-2.0-38.0","","","[[""img/obj6.png"",""img/obj2.png"",""img/obj11.png""],[""img/obj3.png"",""img/obj4.png"",0],[""img/obj9.png"",0,0]]","","","1,2,2,1,1,3,3,1,5","65","","","","","","","","","","",""
"vsl-grid-scene-snap","114","371599","0.0-5.0-2.0-39.0","","","[[0,""img/obj11.png"",0],[""img/obj4.png"",0,""img/obj3.png""],[""img/obj6.png"",""img/obj2.png"",""img/obj9.png""]]","","","3,2,2,1,3,3,2,1,5","133","","","","","","","","","","",""
"vsl-grid-scene-snap","115","374605","0.0-5.0-2.0-40.0","","","[[""img/obj3.png"",""img/obj12.png"",""img/obj7.png""],[""img/obj9.png"",""img/obj11.png"",0],[""img/obj4.png"",0,0]]","","","1,1,2,2,1,4,2,2,5","7","","","","","","","","","","",""
"vsl-grid-scene-snap","116","377608","0.0-5.0-2.0-41.0","","","[[""img/obj3.png"",""img/obj10.png"",0],[""img/obj9.png"",0,""img/obj5.png""],[0,""img/obj6.png"",""img/obj2.png""]]","","","1,1,2,2,3,3,2,1,6","21","","","","","","","","","","",""
"vsl-grid-scene-snap","117","380625","0.0-5.0-2.0-42.0","","","[[0,""img/obj11.png"",""img/obj1.png""],[""img/obj4.png"",0,""img/obj8.png""],[""img/obj6.png"",""img/obj2.png"",0]]","","","3,1,1,1,3,3,2,1,5","96","","","","","","","","","","",""
"vsl-grid-scene-snap","118","383652","0.0-5.0-2.0-43.0","","","[[""img/obj3.png"",""img/obj12.png"",""img/obj7.png""],[""img/obj9.png"",""img/obj10.png"",0],[0,0,""img/obj5.png""]]","","","1,1,2,2,1,4,2,2,6","11","","","","","","","","","","",""
"vsl-grid-scene-snap","119","386664","0.0-5.0-2.0-44.0","","","[[0,""img/obj12.png"",""img/obj7.png""],[0,""img/obj11.png"",""img/obj3.png""],[""img/obj4.png"",0,""img/obj9.png""]]","","","3,2,2,2,1,4,2,2,5","123","","","","","","","","","","",""
"vsl-grid-scene-snap","120","389666","0.0-5.0-2.0-45.0","","","[[0,""img/obj11.png"",0],[""img/obj4.png"",0,""img/obj1.png""],[""img/obj12.png"",""img/obj7.png"",""img/obj8.png""]]","","","3,2,1,1,3,4,2,1,5","134","","","","","","","","","","",""
"vsl-grid-scene-snap","121","392679","0.0-5.0-2.0-46.0","","","[[""img/obj6.png"",""img/obj2.png"",""img/obj11.png""],[0,""img/obj4.png"",""img/obj1.png""],[0,0,""img/obj8.png""]]","","","3,2,1,1,1,3,3,1,5","116","","","","","","","","","","",""
"vsl-grid-scene-snap","122","395683","0.0-5.0-2.0-47.0","","","[[0,""img/obj6.png"",""img/obj2.png""],[""img/obj1.png"",""img/obj10.png"",0],[""img/obj8.png"",0,""img/obj5.png""]]","","","1,2,1,2,1,3,2,2,6","44","","","","","","","","","","",""
"vsl-grid-attention-check","123","399716","0.0-5.0-3.0-0.0-0.0","","null","[[""img/square.png"",0,""img/square.png""],[0,""img/attention.png"",""img/square.png""],[""img/square.png"",0,""img/square.png""]]","","","","","null","","","","","","","","","",""
"vsl-grid-attention-check","124","399762","0.0-5.0-3.0-0.1-0.1","","42","[[""img/square.png"",""img/square.png"",""img/square.png""],[""img/square.png"",""img/attention.png"",0],[0,""img/square.png"",0]]","","","","","32","","","","","","","","","",""
"html-keyboard-response","125","400946","0.0-5.0-3.0-1.0","","null"," ","","","","","null","","","","","","","","","",""
"vsl-grid-scene-snap","126","402950","0.0-5.0-4.0-0.0","","","[[""img/obj12.png"",""img/obj7.png"",0],[""img/obj3.png"",0,""img/obj11.png""],[""img/obj9.png"",""img/obj4.png"",0]]","","","1,2,2,1,1,4,3,2,5","63","","","","","","","","","","",""
"vsl-grid-scene-snap","127","405967","0.0-5.0-4.0-1.0","","","[[0,""img/obj11.png"",""img/obj3.png""],[""img/obj4.png"",0,""img/obj9.png""],[""img/obj12.png"",""img/obj7.png"",0]]","","","3,1,2,1,3,4,2,1,5","99","","","","","","","","","","",""
"vsl-grid-scene-snap","128","408978","0.0-5.0-4.0-2.0","","","[[""img/obj6.png"",""img/obj2.png"",0],[""img/obj10.png"",0,""img/obj3.png""],[0,""img/obj5.png"",""img/obj9.png""]]","","","3,2,2,1,1,3,1,2,6","113","","","","","","","","","","",""
"vsl-grid-scene-snap","129","411984","0.0-5.0-4.0-3.0","","","[[0,""img/obj11.png"",0],[""img/obj4.png"",0,""img/obj1.png""],[""img/obj6.png"",""img/obj2.png"",""img/obj8.png""]]","","","3,2,1,1,3,3,2,1,5","132","","","","","","","","","","",""
"vsl-grid-scene-snap","130","415004","0.0-5.0-4.0-4.0","","","[[""img/obj3.png"",""img/obj6.png"",""img/obj2.png""],[""img/obj9.png"",""img/obj11.png"",0],[""img/obj4.png"",0,0]]","","","1,1,2,2,1,3,2,2,5","5","","","","","","","","","","",""
"vsl-grid-scene-snap","131","418035","0.0-5.0-4.0-5.0","","","[[""img/obj1.png"",""img/obj10.png"",0],[""img/obj8.png"",0,""img/obj5.png""],[0,""img/obj6.png"",""img/obj2.png""]]","","","1,1,1,2,3,3,2,1,6","20","","","","","","","","","","",""
"vsl-grid-scene-snap","132","421045","0.0-5.0-4.0-6.0","","","[[""img/obj1.png"",0,""img/obj11.png""],[""img/obj8.png"",""img/obj4.png"",0],[0,""img/obj6.png"",""img/obj2.png""]]","","","1,1,1,2,3,3,3,1,5","12","","","","","","","","","","",""
"vsl-grid-scene-snap","133","424054","0.0-5.0-4.0-7.0","","","[[""img/obj10.png"",0,""img/obj1.png""],[0,""img/obj5.png"",""img/obj8.png""],[""img/obj12.png"",""img/obj7.png"",0]]","","","3,1,1,1,3,4,1,1,6","102","","","","","","","","","","",""
"vsl-grid-scene-snap","134","427071","0.0-5.0-4.0-8.0","","","[[""img/obj12.png"",""img/obj7.png"",""img/obj3.png""],[0,""img/obj11.png"",""img/obj9.png""],[""img/obj4.png"",0,0]]","","","3,1,2,1,1,4,2,2,5","75","","","","","","","","","","",""
"vsl-grid-scene-snap","135","430080","0.0-5.0-4.0-9.0","","","[[""img/obj1.png"",0,0],[""img/obj8.png"",""img/obj10.png"",0],[""img/obj6.png"",""img/obj2.png"",""img/obj5.png""]]","","","1,1,1,1,3,3,2,2,6","32","","","","","","","","","","",""
"vsl-grid-scene-snap","136","433095","0.0-5.0-4.0-10.0","","","[[0,""img/obj12.png"",""img/obj7.png""],[""img/obj3.png"",0,""img/obj11.png""],[""img/obj9.png"",""img/obj4.png"",0]]","","","1,2,2,2,1,4,3,2,5","39","","","","","","","","","","",""
"vsl-grid-scene-snap","137","436115","0.0-5.0-4.0-11.0","","","[[""img/obj6.png"",""img/obj2.png"",""img/obj11.png""],[0,""img/obj4.png"",""img/obj3.png""],[0,0,""img/obj9.png""]]","","","3,2,2,1,1,3,3,1,5","117","","","","","","","","","","",""
"vsl-grid-scene-snap","138","439119","0.0-5.0-4.0-12.0","","","[[""img/obj12.png"",""img/obj7.png"",0],[0,""img/obj11.png"",""img/obj1.png""],[""img/obj4.png"",0,""img/obj8.png""]]","","","3,2,1,1,1,4,2,2,5","110","","","","","","","","","","",""
"vsl-grid-scene-snap","139","442138","0.0-5.0-4.0-13.0","","","[[""img/obj6.png"",""img/obj2.png"",0],[""img/obj1.png"",""img/obj10.png"",0],[""img/obj8.png"",0,""img/obj5.png""]]","","","1,2,1,1,1,3,2,2,6","68","","","","","","","","","","",""
"vsl-grid-scene-snap","140","445150","0.0-5.0-4.0-14.0","","","[[""img/obj10.png"",""img/obj12.png"",""img/obj7.png""],[""img/obj1.png"",""img/obj5.png"",0],[""img/obj8.png"",0,0]]","","","1,2,1,2,1,4,1,1,6","42","","","","","","","","","","",""
"vsl-grid-scene-snap","141","448170","0.0-5.0-4.0-15.0","","","[[""img/obj10.png"",""img/obj12.png"",""img/obj7.png""],[""img/obj3.png"",""img/obj5.png"",0],[""img/obj9.png"",0,0]]","","","1,2,2,2,1,4,1,1,6","43","","","","","","","","","","",""
"vsl-grid-scene-snap","142","451190","0.0-5.0-4.0-16.0","","","[[0,0,""img/obj11.png""],[""img/obj3.png"",""img/obj4.png"",0],[""img/obj9.png"",""img/obj12.png"",""img/obj7.png""]]","","","1,2,2,2,3,4,3,1,5","51","","","","","","","","","","",""
"vsl-grid-scene-snap","143","454209","0.0-5.0-4.0-17.0","","","[[""img/obj10.png"",0,""img/obj1.png""],[0,""img/obj5.png"",""img/obj8.png""],[0,""img/obj6.png"",""img/obj2.png""]]","","","3,1,1,2,3,3,1,1,6","92","","","","","","","","","","",""
"vsl-grid-scene-snap","144","457220","0.0-5.0-4.0-18.0","","","[[""img/obj3.png"",0,0],[""img/obj9.png"",""img/obj11.png"",0],[""img/obj4.png"",""img/obj12.png"",""img/obj7.png""]]","","","1,1,2,2,3,4,2,2,5","19","","","","","","","","","","",""
"vsl-grid-scene-snap","145","460225","0.0-5.0-4.0-19.0","","","[[""img/obj1.png"",0,""img/obj11.png""],[""img/obj8.png"",""img/obj4.png"",0],[0,""img/obj12.png"",""img/obj7.png""]]","","","1,1,1,2,3,4,3,1,5","14","","","","","","","","","","",""
"vsl-grid-scene-snap","146","463237","0.0-5.0-4.0-20.0","","","[[""img/obj6.png"",""img/obj2.png"",""img/obj3.png""],[0,""img/obj10.png"",""img/obj9.png""],[0,0,""img/obj5.png""]]","","","3,1,2,1,1,3,2,2,6","81","","","","","","","","","","",""
"vsl-grid-scene-snap","147","466242","0.0-5.0-4.0-21.0","","","[[""img/obj1.png"",""img/obj12.png"",""img/obj7.png""],[""img/obj8.png"",""img/obj11.png"",0],[""img/obj4.png"",0,0]]","","","1,1,1,2,1,4,2,2,5","6","","","","","","","","","","",""
"vsl-grid-scene-snap","148","469258","0.0-5.0-4.0-22.0","","","[[""img/obj6.png"",""img/obj2.png"",""img/obj1.png""],[0,""img/obj10.png"",""img/obj8.png""],[0,0,""img/obj5.png""]]","","","3,1,1,1,1,3,2,2,6","80","","","","","","","","","","",""
"vsl-grid-scene-snap","149","472262","0.0-5.0-4.0-23.0","","","[[""img/obj6.png"",""img/obj2.png"",""img/obj3.png""],[0,""img/obj11.png"",""img/obj9.png""],[""img/obj4.png"",0,0]]","","","3,1,2,1,1,3,2,2,5","73","","","","","","","","","","",""
"vsl-grid-scene-snap","150","475276","0.0-5.0-4.0-24.0","","","[[""img/obj10.png"",""img/obj6.png"",""img/obj2.png""],[""img/obj1.png"",""img/obj5.png"",0],[""img/obj8.png"",0,0]]","","","1,2,1,2,1,3,1,1,6","40","","","","","","","","","","",""
"vsl-grid-scene-snap","151","478299","0.0-5.0-4.0-25.0","","","[[0,""img/obj10.png"",0],[""img/obj1.png"",0,""img/obj5.png""],[""img/obj8.png"",""img/obj12.png"",""img/obj7.png""]]","","","1,2,1,2,3,4,2,1,6","54","","","","","","","","","","",""
"vsl-grid-scene-snap","152","481325","0.0-5.0-4.0-26.0","","","[[0,""img/obj6.png"",""img/obj2.png""],[""img/obj3.png"",0,""img/obj11.png""],[""img/obj9.png"",""img/obj4.png"",0]]","","","1,2,2,2,1,3,3,2,5","37","","","","","","","","","","",""
"vsl-grid-scene-snap","153","484346","0.0-5.0-4.0-27.0","","","[[""img/obj6.png"",""img/obj2.png"",""img/obj11.png""],[""img/obj1.png"",""img/obj4.png"",0],[""img/obj8.png"",0,0]]","","","1,2,1,1,1,3,3,1,5","64","","","","","","","","","","",""
"vsl-grid-scene-snap","154","487376","0.0-5.0-4.0-28.0","","","[[""img/obj1.png"",0,0],[""img/obj8.png"",""img/obj10.png"",0],[""img/obj12.png"",""img/obj7.png"",""img/obj5.png""]]","","","1,1,1,1,3,4,2,2,6","34","","","","","","","","","","",""
"vsl-grid-scene-snap","155","490398","0.0-5.0-4.0-29.0","","","[[0,""img/obj6.png"",""img/obj2.png""],[0,""img/obj11.png"",""img/obj3.png""],[""img/obj4.png"",0,""img/obj9.png""]]","","","3,2,2,2,1,3,2,2,5","121","","","","","","","","","","",""
"vsl-grid-scene-snap","156","493422","0.0-5.0-4.0-30.0","","","[[0,""img/obj6.png"",""img/obj2.png""],[""img/obj10.png"",0,""img/obj3.png""],[0,""img/obj5.png"",""img/obj9.png""]]","","","3,2,2,2,1,3,1,2,6","125","","","","","","","","","","",""
"vsl-grid-scene-snap","157","496431","0.0-5.0-4.0-31.0","","","[[0,0,""img/obj11.png""],[0,""img/obj4.png"",""img/obj3.png""],[""img/obj6.png"",""img/obj2.png"",""img/obj9.png""]]","","","3,2,2,1,3,3,3,1,5","141","","","","","","","","","","",""
"vsl-grid-scene-snap","158","499446","0.0-5.0-4.0-32.0","","","[[""img/obj3.png"",0,""img/obj11.png""],[""img/obj9.png"",""img/obj4.png"",0],[""img/obj6.png"",""img/obj2.png"",0]]","","","1,1,2,1,3,3,3,1,5","25","","","","","","","","","","",""
"vsl-grid-scene-snap","159","502464","0.0-5.0-4.0-33.0","","","[[""img/obj3.png"",0,""img/obj11.png""],[""img/obj9.png"",""img/obj4.png"",0],[0,""img/obj12.png"",""img/obj7.png""]]","","","1,1,2,2,3,4,3,1,5","15","","","","","","","","","","",""
"vsl-grid-scene-snap","160","505481","0.0-5.0-4.0-34.0","","","[[0,""img/obj10.png"",0],[""img/obj3.png"",0,""img/obj5.png""],[""img/obj9.png"",""img/obj6.png"",""img/obj2.png""]]","","","1,2,2,2,3,3,2,1,6","53","","","","","","","","","","",""
"vsl-grid-scene-snap","161","508542","0.0-5.0-4.0-35.0","","","[[""img/obj1.png"",""img/obj10.png"",0],[""img/obj8.png"",0,""img/obj5.png""],[0,""img/obj12.png"",""img/obj7.png""]]","","","1,1,1,2,3,4,2,1,6","22","","","","","","","","","","",""
"vsl-grid-scene-snap","162","511550","0.0-5.0-4.0-36.0","","","[[0,""img/obj12.png"",""img/obj7.png""],[""img/obj1.png"",""img/obj10.png"",0],[""img/obj8.png"",0,""img/obj5.png""]]","","","1,2,1,2,1,4,2,2,6","46","","","","","","","","","","",""
"vsl-grid-scene-snap","163","514564","0.0-5.0-4.0-37.0","","","[[0,0,""img/obj1.png""],[0,""img/obj10.png"",""img/obj8.png""],[""img/obj6.png"",""img/obj2.png"",""img/obj5.png""]]","","","3,1,1,1,3,3,2,2,6","104","","","","","","","","","","",""
"vsl-grid-scene-snap","164","517581","0.0-5.0-4.0-38.0","","","[[""img/obj3.png"",""img/obj10.png"",0],[""img/obj9.png"",0,""img/obj5.png""],[0,""img/obj12.png"",""img/obj7.png""]]","","","1,1,2,2,3,4,2,1,6","23","","","","","","","","","","",""
"vsl-grid-scene-snap","165","520595","0.0-5.0-4.0-39.0","","","[[""img/obj10.png"",""img/obj12.png"",""img/obj7.png""],[0,""img/obj5.png"",""img/obj1.png""],[0,0,""img/obj8.png""]]","","","3,2,1,2,1,4,1,1,6","130","","","","","","","","","","",""
"vsl-grid-scene-snap","166","523599","0.0-5.0-4.0-40.0","","","[[""img/obj1.png"",""img/obj10.png"",0],[""img/obj8.png"",0,""img/obj5.png""],[""img/obj12.png"",""img/obj7.png"",0]]","","","1,1,1,1,3,4,2,1,6","30","","","","","","","","","","",""
"vsl-grid-scene-snap","167","526601","0.0-5.0-4.0-41.0","","","[[""img/obj6.png"",""img/obj2.png"",0],[0,""img/obj11.png"",""img/obj1.png""],[""img/obj4.png"",0,""img/obj8.png""]]","","","3,2,1,1,1,3,2,2,5","108","","","","","","","","","","",""
"vsl-grid-scene-snap","168","529604","0.0-5.0-4.0-42.0","","","[[0,""img/obj10.png"",0],[""img/obj1.png"",0,""img/obj5.png""],[""img/obj8.png"",""img/obj6.png"",""img/obj2.png""]]","","","1,2,1,2,3,3,2,1,6","52","","","","","","","","","","",""
"vsl-grid-scene-snap","169","532614","0.0-5.0-4.0-43.0","","","[[""img/obj12.png"",""img/obj7.png"",""img/obj3.png""],[0,""img/obj10.png"",""img/obj9.png""],[0,0,""img/obj5.png""]]","","","3,1,2,1,1,4,2,2,6","83","","","","","","","","","","",""
"vsl-grid-scene-snap","170","535679","0.0-5.0-4.0-44.0","","","[[""img/obj1.png"",""img/obj10.png"",0],[""img/obj8.png"",0,""img/obj5.png""],[""img/obj6.png"",""img/obj2.png"",0]]","","","1,1,1,1,3,3,2,1,6","28","","","","","","","","","","",""
"vsl-grid-scene-snap","171","538711","0.0-5.0-4.0-45.0","","","[[""img/obj1.png"",0,0],[""img/obj8.png"",""img/obj11.png"",0],[""img/obj4.png"",""img/obj12.png"",""img/obj7.png""]]","","","1,1,1,2,3,4,2,2,5","18","","","","","","","","","","",""
"vsl-grid-scene-snap","172","541797","0.0-5.0-4.0-46.0","","","[[""img/obj10.png"",0,""img/obj1.png""],[0,""img/obj5.png"",""img/obj8.png""],[0,""img/obj12.png"",""img/obj7.png""]]","","","3,1,1,2,3,4,1,1,6","94","","","","","","","","","","",""
"vsl-grid-scene-snap","173","544817","0.0-5.0-4.0-47.0","","","[[0,""img/obj12.png"",""img/obj7.png""],[""img/obj10.png"",0,""img/obj1.png""],[0,""img/obj5.png"",""img/obj8.png""]]","","","3,2,1,2,1,4,1,2,6","126","","","","","","","","","","",""
"vsl-grid-attention-check","174","547617","0.0-5.0-5.0-0.0-0.0","","1796.5999999940395","[[""img/square.png"",""img/square.png"",0],[""img/square.png"",""img/attention.png"",""img/square.png""],[""img/square.png"",0,0]]","","","","","32","","","","","","","","","",""
"html-keyboard-response","175","548666","0.0-5.0-5.0-1.0","","null"," ","","","","","null","","","","","","","","","",""
"vsl-grid-scene-snap","176","550671","0.0-5.0-6.0-0.0","","","[[""img/obj1.png"",""img/obj6.png"",""img/obj2.png""],[""img/obj8.png"",""img/obj11.png"",0],[""img/obj4.png"",0,0]]","","","1,1,1,2,1,3,2,2,5","4","","","","","","","","","","",""
"vsl-grid-scene-snap","177","553813","0.0-5.0-6.0-1.0","","","[[""img/obj1.png"",0,0],[""img/obj8.png"",""img/obj11.png"",0],[""img/obj4.png"",""img/obj6.png"",""img/obj2.png""]]","","","1,1,1,2,3,3,2,2,5","16","","","","","","","","","","",""
"vsl-grid-scene-snap","178","556816","0.0-5.0-6.0-2.0","","","[[""img/obj1.png"",0,""img/obj11.png""],[""img/obj8.png"",""img/obj4.png"",0],[""img/obj12.png"",""img/obj7.png"",0]]","","","1,1,1,1,3,4,3,1,5","26","","","","","","","","","","",""
"vsl-grid-scene-snap","179","559826","0.0-5.0-6.0-3.0","","","[[""img/obj10.png"",0,0],[0,""img/obj5.png"",""img/obj3.png""],[""img/obj6.png"",""img/obj2.png"",""img/obj9.png""]]","","","3,2,2,1,3,3,1,1,6","137","","","","","","","","","","",""
"vsl-grid-scene-snap","180","562829","0.0-5.0-6.0-4.0","","","[[0,""img/obj11.png"",""img/obj3.png""],[""img/obj4.png"",0,""img/obj9.png""],[0,""img/obj6.png"",""img/obj2.png""]]","","","3,1,2,2,3,3,2,1,5","89","","","","","","","","","","",""
"vsl-grid-scene-snap","181","565842","0.0-5.0-6.0-5.0","","","[[""img/obj10.png"",0,0],[0,""img/obj5.png"",""img/obj1.png""],[""img/obj12.png"",""img/obj7.png"",""img/obj8.png""]]","","","3,2,1,1,3,4,1,1,6","138","","","","","","","","","","",""
"vsl-grid-scene-snap","182","568848","0.0-5.0-6.0-6.0","","","[[""img/obj10.png"",0,""img/obj3.png""],[0,""img/obj5.png"",""img/obj9.png""],[0,""img/obj12.png"",""img/obj7.png""]]","","","3,1,2,2,3,4,1,1,6","95","","","","","","","","","","",""
"vsl-grid-scene-snap","183","571865","0.0-5.0-6.0-7.0","","","[[0,0,""img/obj3.png""],[0,""img/obj10.png"",""img/obj9.png""],[""img/obj12.png"",""img/obj7.png"",""img/obj5.png""]]","","","3,1,2,1,3,4,2,2,6","107","","","","","","","","","","",""
"vsl-grid-scene-snap","184","574877","0.0-5.0-6.0-8.0","","","[[""img/obj12.png"",""img/obj7.png"",0],[""img/obj3.png"",""img/obj10.png"",0],[""img/obj9.png"",0,""img/obj5.png""]]","","","1,2,2,1,1,4,2,2,6","71","","","","","","","","","","",""
"vsl-grid-scene-snap","185","577910","0.0-5.0-6.0-9.0","","","[[0,0,""img/obj11.png""],[0,""img/obj4.png"",""img/obj1.png""],[""img/obj12.png"",""img/obj7.png"",""img/obj8.png""]]","","","3,2,1,1,3,4,3,1,5","142","","","","","","","","","","",""
"vsl-grid-scene-snap","186","580951","0.0-5.0-6.0-10.0","","","[[0,""img/obj12.png"",""img/obj7.png""],[0,""img/obj11.png"",""img/obj1.png""],[""img/obj4.png"",0,""img/obj8.png""]]","","","3,2,1,2,1,4,2,2,5","122","","","","","","","","","","",""
"vsl-grid-scene-snap","187","583976","0.0-5.0-6.0-11.0","","","[[0,""img/obj12.png"",""img/obj7.png""],[""img/obj1.png"",0,""img/obj11.png""],[""img/obj8.png"",""img/obj4.png"",0]]","","","1,2,1,2,1,4,3,2,5","38","","","","","","","","","","",""
"vsl-grid-scene-snap","188","586979","0.0-5.0-6.0-12.0","","","[[""img/obj3.png"",0,""img/obj11.png""],[""img/obj9.png"",""img/obj4.png"",0],[0,""img/obj6.png"",""img/obj2.png""]]","","","1,1,2,2,3,3,3,1,5","13","","","","","","","","","","",""
"vsl-grid-scene-snap","189","589982","0.0-5.0-6.0-13.0","","","[[""img/obj10.png"",0,0],[0,""img/obj5.png"",""img/obj1.png""],[""img/obj6.png"",""img/obj2.png"",""img/obj8.png""]]","","","3,2,1,1,3,3,1,1,6","136","","","","","","","","","","",""
"vsl-grid-scene-snap","190","592996","0.0-5.0-6.0-14.0","","","[[""img/obj3.png"",""img/obj12.png"",""img/obj7.png""],[""img/obj9.png"",0,""img/obj11.png""],[0,""img/obj4.png"",0]]","","","1,1,2,2,1,4,3,2,5","3","","","","","","","","","","",""
"vsl-grid-scene-snap","191","596025","0.0-5.0-6.0-15.0","","","[[0,0,""img/obj1.png""],[0,""img/obj11.png"",""img/obj8.png""],[""img/obj4.png"",""img/obj6.png"",""img/obj2.png""]]","","","3,1,1,2,3,3,2,2,5","84","","","","","","","","","","",""
"vsl-grid-scene-snap","192","599044","0.0-5.0-6.0-16.0","","","[[""img/obj10.png"",0,""img/obj3.png""],[0,""img/obj5.png"",""img/obj9.png""],[0,""img/obj6.png"",""img/obj2.png""]]","","","3,1,2,2,3,3,1,1,6","93","","","","","","","","","","",""
"vsl-grid-scene-snap","193","602067","0.0-5.0-6.0-17.0","","","[[0,""img/obj12.png"",""img/obj7.png""],[""img/obj3.png"",""img/obj10.png"",0],[""img/obj9.png"",0,""img/obj5.png""]]","","","1,2,2,2,1,4,2,2,6","47","","","","","","","","","","",""
"vsl-grid-scene-snap","194","605092","0.0-5.0-6.0-18.0","","","[[0,""img/obj11.png"",""img/obj1.png""],[""img/obj4.png"",0,""img/obj8.png""],[0,""img/obj6.png"",""img/obj2.png""]]","","","3,1,1,2,3,3,2,1,5","88","","","","","","","","","","",""
"vsl-grid-scene-snap","195","608110","0.0-5.0-6.0-19.0","","","[[""img/obj6.png"",""img/obj2.png"",0],[""img/obj3.png"",""img/obj10.png"",0],[""img/obj9.png"",0,""img/obj5.png""]]","","","1,2,2,1,1,3,2,2,6","69","","","","","","","","","","",""
"vsl-grid-scene-snap","196","611128","0.0-5.0-6.0-20.0","","","[[""img/obj10.png"",0,0],[""img/obj3.png"",""img/obj5.png"",0],[""img/obj9.png"",""img/obj6.png"",""img/obj2.png""]]","","","1,2,2,2,3,3,1,1,6","57","","","","","","","","","","",""
"vsl-grid-scene-snap","197","614175","0.0-5.0-6.0-21.0","","","[[""img/obj1.png"",""img/obj12.png"",""img/obj7.png""],[""img/obj8.png"",0,""img/obj11.png""],[0,""img/obj4.png"",0]]","","","1,1,1,2,1,4,3,2,5","2","","","","","","","","","","",""
"vsl-grid-scene-snap","198","617208","0.0-5.0-6.0-22.0","","","[[0,0,""img/obj11.png""],[0,""img/obj4.png"",""img/obj3.png""],[""img/obj12.png"",""img/obj7.png"",""img/obj9.png""]]","","","3,2,2,1,3,4,3,1,5","143","","","","","","","","","","",""
"vsl-grid-scene-snap","199","620226","0.0-5.0-6.0-23.0","","","[[""img/obj12.png"",""img/obj7.png"",""img/obj11.png""],[""img/obj1.png"",""img/obj4.png"",0],[""img/obj8.png"",0,0]]","","","1,2,1,1,1,4,3,1,5","66","","","","","","","","","","",""
"vsl-grid-scene-snap","200","623251","0.0-5.0-6.0-24.0","","","[[0,""img/obj6.png"",""img/obj2.png""],[""img/obj3.png"",""img/obj10.png"",0],[""img/obj9.png"",0,""img/obj5.png""]]","","","1,2,2,2,1,3,2,2,6","45","","","","","","","","","","",""
"vsl-grid-scene-snap","201","626256","0.0-5.0-6.0-25.0","","","[[0,""img/obj11.png"",""img/obj1.png""],[""img/obj4.png"",0,""img/obj8.png""],[0,""img/obj12.png"",""img/obj7.png""]]","","","3,1,1,2,3,4,2,1,5","90","","","","","","","","","","",""
"vsl-grid-scene-snap","202","629270","0.0-5.0-6.0-26.0","","","[[0,0,""img/obj3.png""],[0,""img/obj10.png"",""img/obj9.png""],[""img/obj6.png"",""img/obj2.png"",""img/obj5.png""]]","","","3,1,2,1,3,3,2,2,6","105","","","","","","","","","","",""
"vsl-grid-scene-snap","203","632278","0.0-5.0-6.0-27.0","","","[[0,0,""img/obj1.png""],[0,""img/obj10.png"",""img/obj8.png""],[""img/obj12.png"",""img/obj7.png"",""img/obj5.png""]]","","","3,1,1,1,3,4,2,2,6","106","","","","","","","","","","",""
"vsl-grid-scene-snap","204","635295","0.0-5.0-6.0-28.0","","","[[0,0,""img/obj3.png""],[0,""img/obj11.png"",""img/obj9.png""],[""img/obj4.png"",""img/obj6.png"",""img/obj2.png""]]","","","3,1,2,2,3,3,2,2,5","85","","","","","","","","","","",""
"vsl-grid-scene-snap","205","638367","0.0-5.0-6.0-29.0","","","[[""img/obj6.png"",""img/obj2.png"",0],[""img/obj3.png"",0,""img/obj11.png""],[""img/obj9.png"",""img/obj4.png"",0]]","","","1,2,2,1,1,3,3,2,5","61","","","","","","","","","","",""
"vsl-grid-scene-snap","206","641560","0.0-5.0-6.0-30.0","","","[[0,0,""img/obj3.png""],[0,""img/obj11.png"",""img/obj9.png""],[""img/obj4.png"",""img/obj12.png"",""img/obj7.png""]]","","","3,1,2,2,3,4,2,2,5","87","","","","","","","","","","",""
"vsl-grid-scene-snap","207","644631","0.0-5.0-6.0-31.0","","","[[""img/obj3.png"",""img/obj10.png"",0],[""img/obj9.png"",0,""img/obj5.png""],[""img/obj12.png"",""img/obj7.png"",0]]","","","1,1,2,1,3,4,2,1,6","31","","","","","","","","","","",""
"vsl-grid-scene-snap","208","647642","0.0-5.0-6.0-32.0","","","[[""img/obj10.png"",0,0],[""img/obj1.png"",""img/obj5.png"",0],[""img/obj8.png"",""img/obj12.png"",""img/obj7.png""]]","","","1,2,1,2,3,4,1,1,6","58","","","","","","","","","","",""
"vsl-grid-scene-snap","209","650673","0.0-5.0-6.0-33.0","","","[[0,""img/obj6.png"",""img/obj2.png""],[""img/obj10.png"",0,""img/obj1.png""],[0,""img/obj5.png"",""img/obj8.png""]]","","","3,2,1,2,1,3,1,2,6","124","","","","","","","","","","",""
"vsl-grid-scene-snap","210","653687","0.0-5.0-6.0-34.0","","","[[""img/obj3.png"",0,0],[""img/obj9.png"",""img/obj11.png"",0],[""img/obj4.png"",""img/obj6.png"",""img/obj2.png""]]","","","1,1,2,2,3,3,2,2,5","17","","","","","","","","","","",""
"vsl-grid-scene-snap","211","656746","0.0-5.0-6.0-35.0","","","[[""img/obj3.png"",""img/obj10.png"",0],[""img/obj9.png"",0,""img/obj5.png""],[""img/obj6.png"",""img/obj2.png"",0]]","","","1,1,2,1,3,3,2,1,6","29","","","","","","","","","","",""
"vsl-grid-scene-snap","212","659749","0.0-5.0-6.0-36.0","","","[[""img/obj10.png"",0,0],[""img/obj3.png"",""img/obj5.png"",0],[""img/obj9.png"",""img/obj12.png"",""img/obj7.png""]]","","","1,2,2,2,3,4,1,1,6","59","","","","","","","","","","",""
"vsl-grid-scene-snap","213","662797","0.0-5.0-6.0-37.0","","","[[""img/obj12.png"",""img/obj7.png"",0],[""img/obj1.png"",0,""img/obj11.png""],[""img/obj8.png"",""img/obj4.png"",0]]","","","1,2,1,1,1,4,3,2,5","62","","","","","","","","","","",""
"vsl-grid-scene-snap","214","665800","0.0-5.0-6.0-38.0","","","[[""img/obj12.png"",""img/obj7.png"",0],[""img/obj10.png"",0,""img/obj3.png""],[0,""img/obj5.png"",""img/obj9.png""]]","","","3,2,2,1,1,4,1,2,6","115","","","","","","","","","","",""
"vsl-grid-scene-snap","215","668803","0.0-5.0-6.0-39.0","","","[[0,""img/obj10.png"",0],[""img/obj3.png"",0,""img/obj5.png""],[""img/obj9.png"",""img/obj12.png"",""img/obj7.png""]]","","","1,2,2,2,3,4,2,1,6","55","","","","","","","","","","",""
"vsl-grid-scene-snap","216","671856","0.0-5.0-6.0-40.0","","","[[0,0,""img/obj11.png""],[0,""img/obj4.png"",""img/obj1.png""],[""img/obj6.png"",""img/obj2.png"",""img/obj8.png""]]","","","3,2,1,1,3,3,3,1,5","140","","","","","","","","","","",""
"vsl-grid-scene-snap","217","674861","0.0-5.0-6.0-41.0","","","[[""img/obj6.png"",""img/obj2.png"",""img/obj3.png""],[""img/obj10.png"",0,""img/obj9.png""],[0,""img/obj5.png"",0]]","","","3,1,2,1,1,3,1,2,6","77","","","","","","","","","","",""
"vsl-grid-scene-snap","218","677869","0.0-5.0-6.0-42.0","","","[[""img/obj6.png"",""img/obj2.png"",""img/obj1.png""],[""img/obj10.png"",0,""img/obj8.png""],[0,""img/obj5.png"",0]]","","","3,1,1,1,1,3,1,2,6","76","","","","","","","","","","",""
"vsl-grid-scene-snap","219","680871","0.0-5.0-6.0-43.0","","","[[""img/obj10.png"",""img/obj6.png"",""img/obj2.png""],[0,""img/obj5.png"",""img/obj3.png""],[0,0,""img/obj9.png""]]","","","3,2,2,2,1,3,1,1,6","129","","","","","","","","","","",""
"vsl-grid-scene-snap","220","684005","0.0-5.0-6.0-44.0","","","[[0,""img/obj11.png"",0],[""img/obj4.png"",0,""img/obj3.png""],[""img/obj12.png"",""img/obj7.png"",""img/obj9.png""]]","","","3,2,2,1,3,4,2,1,5","135","","","","","","","","","","",""
"vsl-grid-scene-snap","221","687109","0.0-5.0-6.0-45.0","","","[[0,""img/obj6.png"",""img/obj2.png""],[""img/obj1.png"",0,""img/obj11.png""],[""img/obj8.png"",""img/obj4.png"",0]]","","","1,2,1,2,1,3,3,2,5","36","","","","","","","","","","",""
"vsl-grid-scene-snap","222","690156","0.0-5.0-6.0-46.0","","","[[""img/obj12.png"",""img/obj7.png"",""img/obj1.png""],[0,""img/obj11.png"",""img/obj8.png""],[""img/obj4.png"",0,0]]","","","3,1,1,1,1,4,2,2,5","74","","","","","","","","","","",""
"vsl-grid-scene-snap","223","693273","0.0-5.0-6.0-47.0","","","[[0,""img/obj11.png"",""img/obj3.png""],[""img/obj4.png"",0,""img/obj9.png""],[""img/obj6.png"",""img/obj2.png"",0]]","","","3,1,2,1,3,3,2,1,5","97","","","","","","","","","","",""
"vsl-grid-attention-check","224","697280","0.0-5.0-7.0-0.0-0.0","","null","[[""img/square.png"",0,0],[0,""img/attention.png"",""img/square.png""],[""img/square.png"",""img/square.png"",""img/square.png""]]","","","","","null","","","","","","","","","",""
"vsl-grid-attention-check","225","700283","0.0-5.0-7.0-0.1-0.1","","null","[[""img/square.png"",0,0],[""img/square.png"",""img/attention.png"",0],[""img/square.png"",""img/square.png"",""img/square.png""]]","","","","","null","","","","","","","","","",""
"vsl-grid-attention-check","226","703289","0.0-5.0-7.0-0.2-0.2","","null","[[""img/square.png"",""img/square.png"",0],[0,""img/attention.png"",""img/square.png""],[""img/square.png"",0,""img/square.png""]]","","","","","null","","","","","","","","","",""
"vsl-grid-attention-check","227","704391","0.0-5.0-7.0-0.3-0.3","","1099.0999999940395","[[""img/square.png"",0,0],[""img/square.png"",""img/attention.png"",""img/square.png""],[""img/square.png"",0,""img/square.png""]]","","","","","32","","","","","","","","","",""
"html-keyboard-response","228","705393","0.0-5.0-7.0-1.0","","null"," ","","","","","null","","","","","","","","","",""
"vsl-grid-scene-snap","229","707395","0.0-5.0-8.0-0.0","","","[[""img/obj3.png"",0,""img/obj11.png""],[""img/obj9.png"",""img/obj4.png"",0],[""img/obj12.png"",""img/obj7.png"",0]]","","","1,1,2,1,3,4,3,1,5","27","","","","","","","","","","",""
"vsl-grid-scene-snap","230","710398","0.0-5.0-8.0-1.0","","","[[""img/obj10.png"",""img/obj12.png"",""img/obj7.png""],[0,""img/obj5.png"",""img/obj3.png""],[0,0,""img/obj9.png""]]","","","3,2,2,2,1,4,1,1,6","131","","","","","","","","","","",""
"vsl-grid-scene-snap","231","713401","0.0-5.0-8.0-2.0","","","[[""img/obj10.png"",""img/obj6.png"",""img/obj2.png""],[""img/obj3.png"",""img/obj5.png"",0],[""img/obj9.png"",0,0]]","","","1,2,2,2,1,3,1,1,6","41","","","","","","","","","","",""
"vsl-grid-scene-snap","232","716403","0.0-5.0-8.0-3.0","","","[[""img/obj6.png"",""img/obj2.png"",0],[""img/obj10.png"",0,""img/obj1.png""],[0,""img/obj5.png"",""img/obj8.png""]]","","","3,2,1,1,1,3,1,2,6","112","","","","","","","","","","",""
"vsl-grid-scene-snap","233","719405","0.0-5.0-8.0-4.0","","","[[""img/obj1.png"",""img/obj6.png"",""img/obj2.png""],[""img/obj8.png"",0,""img/obj11.png""],[0,""img/obj4.png"",0]]","","","1,1,1,2,1,3,3,2,5","0","","","","","","","","","","",""
"vsl-grid-scene-snap","234","722408","0.0-5.0-8.0-5.0","","","[[""img/obj12.png"",""img/obj7.png"",""img/obj1.png""],[0,""img/obj10.png"",""img/obj8.png""],[0,0,""img/obj5.png""]]","","","3,1,1,1,1,4,2,2,6","82","","","","","","","","","","",""
"vsl-grid-scene-snap","235","725411","0.0-5.0-8.0-6.0","","","[[""img/obj6.png"",""img/obj2.png"",""img/obj1.png""],[0,""img/obj11.png"",""img/obj8.png""],[""img/obj4.png"",0,0]]","","","3,1,1,1,1,3,2,2,5","72","","","","","","","","","","",""
"vsl-grid-scene-snap","236","728413","0.0-5.0-8.0-7.0","","","[[""img/obj3.png"",0,0],[""img/obj9.png"",""img/obj10.png"",0],[""img/obj12.png"",""img/obj7.png"",""img/obj5.png""]]","","","1,1,2,1,3,4,2,2,6","35","","","","","","","","","","",""
"vsl-grid-scene-snap","237","731415","0.0-5.0-8.0-8.0","","","[[""img/obj10.png"",0,0],[0,""img/obj5.png"",""img/obj3.png""],[""img/obj12.png"",""img/obj7.png"",""img/obj9.png""]]","","","3,2,2,1,3,4,1,1,6","139","","","","","","","","","","",""
"vsl-grid-scene-snap","238","734419","0.0-5.0-8.0-9.0","","","[[""img/obj1.png"",""img/obj12.png"",""img/obj7.png""],[""img/obj8.png"",""img/obj10.png"",0],[0,0,""img/obj5.png""]]","","","1,1,1,2,1,4,2,2,6","10","","","","","","","","","","",""
"vsl-grid-scene-snap","239","737423","0.0-5.0-8.0-10.0","","","[[""img/obj10.png"",0,""img/obj1.png""],[0,""img/obj5.png"",""img/obj8.png""],[""img/obj6.png"",""img/obj2.png"",0]]","","","3,1,1,1,3,3,1,1,6","100","","","","","","","","","","",""
"vsl-grid-scene-snap","240","740425","0.0-5.0-8.0-11.0","","","[[""img/obj6.png"",""img/obj2.png"",0],[""img/obj1.png"",0,""img/obj11.png""],[""img/obj8.png"",""img/obj4.png"",0]]","","","1,2,1,1,1,3,3,2,5","60","","","","","","","","","","",""
"vsl-grid-scene-snap","241","743426","0.0-5.0-8.0-12.0","","","[[""img/obj10.png"",0,""img/obj3.png""],[0,""img/obj5.png"",""img/obj9.png""],[""img/obj12.png"",""img/obj7.png"",0]]","","","3,1,2,1,3,4,1,1,6","103","","","","","","","","","","",""
"vsl-grid-scene-snap","242","746429","0.0-5.0-8.0-13.0","","","[[""img/obj12.png"",""img/obj7.png"",""img/obj3.png""],[""img/obj10.png"",0,""img/obj9.png""],[0,""img/obj5.png"",0]]","","","3,1,2,1,1,4,1,2,6","79","","","","","","","","","","",""
"vsl-grid-scene-snap","243","749432","0.0-5.0-8.0-14.0","","","[[0,""img/obj12.png"",""img/obj7.png""],[""img/obj10.png"",0,""img/obj3.png""],[0,""img/obj5.png"",""img/obj9.png""]]","","","3,2,2,2,1,4,1,2,6","127","","","","","","","","","","",""
"vsl-grid-scene-snap","244","752435","0.0-5.0-8.0-15.0","","","[[""img/obj12.png"",""img/obj7.png"",""img/obj11.png""],[""img/obj3.png"",""img/obj4.png"",0],[""img/obj9.png"",0,0]]","","","1,2,2,1,1,4,3,1,5","67","","","","","","","","","","",""
"vsl-grid-scene-snap","245","755439","0.0-5.0-8.0-16.0","","","[[0,""img/obj6.png"",""img/obj2.png""],[0,""img/obj11.png"",""img/obj1.png""],[""img/obj4.png"",0,""img/obj8.png""]]","","","3,2,1,2,1,3,2,2,5","120","","","","","","","","","","",""
"vsl-grid-scene-snap","246","758440","0.0-5.0-8.0-17.0","","","[[""img/obj12.png"",""img/obj7.png"",""img/obj11.png""],[0,""img/obj4.png"",""img/obj3.png""],[0,0,""img/obj9.png""]]","","","3,2,2,1,1,4,3,1,5","119","","","","","","","","","","",""
"vsl-grid-scene-snap","247","761442","0.0-5.0-8.0-18.0","","","[[""img/obj1.png"",""img/obj6.png"",""img/obj2.png""],[""img/obj8.png"",""img/obj10.png"",0],[0,0,""img/obj5.png""]]","","","1,1,1,2,1,3,2,2,6","8","","","","","","","","","","",""
"vsl-grid-scene-snap","248","764482","0.0-5.0-8.0-19.0","","","[[0,0,""img/obj1.png""],[0,""img/obj11.png"",""img/obj8.png""],[""img/obj4.png"",""img/obj12.png"",""img/obj7.png""]]","","","3,1,1,2,3,4,2,2,5","86","","","","","","","","","","",""
"vsl-grid-scene-snap","249","767485","0.0-5.0-8.0-20.0","","","[[""img/obj12.png"",""img/obj7.png"",0],[""img/obj10.png"",0,""img/obj1.png""],[0,""img/obj5.png"",""img/obj8.png""]]","","","3,2,1,1,1,4,1,2,6","114","","","","","","","","","","",""
"vsl-grid-scene-snap","250","770499","0.0-5.0-8.0-21.0","","","[[""img/obj12.png"",""img/obj7.png"",0],[""img/obj1.png"",""img/obj10.png"",0],[""img/obj8.png"",0,""img/obj5.png""]]","","","1,2,1,1,1,4,2,2,6","70","","","","","","","","","","",""
"vsl-grid-scene-snap","251","773503","0.0-5.0-8.0-22.0","","","[[0,0,""img/obj11.png""],[""img/obj3.png"",""img/obj4.png"",0],[""img/obj9.png"",""img/obj6.png"",""img/obj2.png""]]","","","1,2,2,2,3,3,3,1,5","49","","","","","","","","","","",""
"vsl-grid-scene-snap","252","776506","0.0-5.0-8.0-23.0","","","[[0,0,""img/obj11.png""],[""img/obj1.png"",""img/obj4.png"",0],[""img/obj8.png"",""img/obj6.png"",""img/obj2.png""]]","","","1,2,1,2,3,3,3,1,5","48","","","","","","","","","","",""
"vsl-grid-scene-snap","253","779508","0.0-5.0-8.0-24.0","","","[[0,""img/obj11.png"",""img/obj1.png""],[""img/obj4.png"",0,""img/obj8.png""],[""img/obj12.png"",""img/obj7.png"",0]]","","","3,1,1,1,3,4,2,1,5","98","","","","","","","","","","",""
"vsl-grid-scene-snap","254","782510","0.0-5.0-8.0-25.0","","","[[""img/obj10.png"",0,""img/obj3.png""],[0,""img/obj5.png"",""img/obj9.png""],[""img/obj6.png"",""img/obj2.png"",0]]","","","3,1,2,1,3,3,1,1,6","101","","","","","","","","","","",""
"vsl-grid-scene-snap","255","785519","0.0-5.0-8.0-26.0","","","[[""img/obj3.png"",""img/obj6.png"",""img/obj2.png""],[""img/obj9.png"",""img/obj10.png"",0],[0,0,""img/obj5.png""]]","","","1,1,2,2,1,3,2,2,6","9","","","","","","","","","","",""
"vsl-grid-scene-snap","256","788524","0.0-5.0-8.0-27.0","","","[[""img/obj10.png"",""img/obj6.png"",""img/obj2.png""],[0,""img/obj5.png"",""img/obj1.png""],[0,0,""img/obj8.png""]]","","","3,2,1,2,1,3,1,1,6","128","","","","","","","","","","",""
"vsl-grid-scene-snap","257","791526","0.0-5.0-8.0-28.0","","","[[0,0,""img/obj11.png""],[""img/obj1.png"",""img/obj4.png"",0],[""img/obj8.png"",""img/obj12.png"",""img/obj7.png""]]","","","1,2,1,2,3,4,3,1,5","50","","","","","","","","","","",""
"vsl-grid-scene-snap","258","794528","0.0-5.0-8.0-29.0","","","[[0,""img/obj11.png"",""img/obj3.png""],[""img/obj4.png"",0,""img/obj9.png""],[0,""img/obj12.png"",""img/obj7.png""]]","","","3,1,2,2,3,4,2,1,5","91","","","","","","","","","","",""
"vsl-grid-scene-snap","259","797530","0.0-5.0-8.0-30.0","","","[[""img/obj12.png"",""img/obj7.png"",0],[0,""img/obj11.png"",""img/obj3.png""],[""img/obj4.png"",0,""img/obj9.png""]]","","","3,2,2,1,1,4,2,2,5","111","","","","","","","","","","",""
"vsl-grid-scene-snap","260","800553","0.0-5.0-8.0-31.0","","","[[""img/obj6.png"",""img/obj2.png"",0],[0,""img/obj11.png"",""img/obj3.png""],[""img/obj4.png"",0,""img/obj9.png""]]","","","3,2,2,1,1,3,2,2,5","109","","","","","","","","","","",""
"vsl-grid-scene-snap","261","803564","0.0-5.0-8.0-32.0","","","[[""img/obj10.png"",0,0],[""img/obj1.png"",""img/obj5.png"",0],[""img/obj8.png"",""img/obj6.png"",""img/obj2.png""]]","","","1,2,1,2,3,3,1,1,6","56","","","","","","","","","","",""
"vsl-grid-scene-snap","262","806569","0.0-5.0-8.0-33.0","","","[[""img/obj3.png"",0,0],[""img/obj9.png"",""img/obj10.png"",0],[""img/obj6.png"",""img/obj2.png"",""img/obj5.png""]]","","","1,1,2,1,3,3,2,2,6","33","","","","","","","","","","",""
"vsl-grid-scene-snap","263","809572","0.0-5.0-8.0-34.0","","","[[""img/obj12.png"",""img/obj7.png"",""img/obj11.png""],[0,""img/obj4.png"",""img/obj1.png""],[0,0,""img/obj8.png""]]","","","3,2,1,1,1,4,3,1,5","118","","","","","","","","","","",""
"vsl-grid-scene-snap","264","812574","0.0-5.0-8.0-35.0","","","[[""img/obj1.png"",0,""img/obj11.png""],[""img/obj8.png"",""img/obj4.png"",0],[""img/obj6.png"",""img/obj2.png"",0]]","","","1,1,1,1,3,3,3,1,5","24","","","","","","","","","","",""
"vsl-grid-scene-snap","265","815608","0.0-5.0-8.0-36.0","","","[[""img/obj12.png"",""img/obj7.png"",""img/obj1.png""],[""img/obj10.png"",0,""img/obj8.png""],[0,""img/obj5.png"",0]]","","","3,1,1,1,1,4,1,2,6","78","","","","","","","","","","",""
"vsl-grid-scene-snap","266","818612","0.0-5.0-8.0-37.0","","","[[""img/obj3.png"",""img/obj6.png"",""img/obj2.png""],[""img/obj9.png"",0,""img/obj11.png""],[0,""img/obj4.png"",0]]","","","1,1,2,2,1,3,3,2,5","1","","","","","","","","","","",""
"vsl-grid-scene-snap","267","821950","0.0-5.0-8.0-38.0","","","[[""img/obj6.png"",""img/obj2.png"",""img/obj11.png""],[""img/obj3.png"",""img/obj4.png"",0],[""img/obj9.png"",0,0]]","","","1,2,2,1,1,3,3,1,5","65","","","","","","","","","","",""
"vsl-grid-scene-snap","268","825041","0.0-5.0-8.0-39.0","","","[[0,""img/obj11.png"",0],[""img/obj4.png"",0,""img/obj3.png""],[""img/obj6.png"",""img/obj2.png"",""img/obj9.png""]]","","","3,2,2,1,3,3,2,1,5","133","","","","","","","","","","",""
"vsl-grid-scene-snap","269","828044","0.0-5.0-8.0-40.0","","","[[""img/obj3.png"",""img/obj12.png"",""img/obj7.png""],[""img/obj9.png"",""img/obj11.png"",0],[""img/obj4.png"",0,0]]","","","1,1,2,2,1,4,2,2,5","7","","","","","","","","","","",""
"vsl-grid-scene-snap","270","831094","0.0-5.0-8.0-41.0","","","[[""img/obj3.png"",""img/obj10.png"",0],[""img/obj9.png"",0,""img/obj5.png""],[0,""img/obj6.png"",""img/obj2.png""]]","","","1,1,2,2,3,3,2,1,6","21","","","","","","","","","","",""
"vsl-grid-scene-snap","271","834137","0.0-5.0-8.0-42.0","","","[[0,""img/obj11.png"",""img/obj1.png""],[""img/obj4.png"",0,""img/obj8.png""],[""img/obj6.png"",""img/obj2.png"",0]]","","","3,1,1,1,3,3,2,1,5","96","","","","","","","","","","",""
"vsl-grid-scene-snap","272","837140","0.0-5.0-8.0-43.0","","","[[""img/obj3.png"",""img/obj12.png"",""img/obj7.png""],[""img/obj9.png"",""img/obj10.png"",0],[0,0,""img/obj5.png""]]","","","1,1,2,2,1,4,2,2,6","11","","","","","","","","","","",""
"vsl-grid-scene-snap","273","840166","0.0-5.0-8.0-44.0","","","[[0,""img/obj12.png"",""img/obj7.png""],[0,""img/obj11.png"",""img/obj3.png""],[""img/obj4.png"",0,""img/obj9.png""]]","","","3,2,2,2,1,4,2,2,5","123","","","","","","","","","","",""
"vsl-grid-scene-snap","274","843170","0.0-5.0-8.0-45.0","","","[[0,""img/obj11.png"",0],[""img/obj4.png"",0,""img/obj1.png""],[""img/obj12.png"",""img/obj7.png"",""img/obj8.png""]]","","","3,2,1,1,3,4,2,1,5","134","","","","","","","","","","",""
"vsl-grid-scene-snap","275","846183","0.0-5.0-8.0-46.0","","","[[""img/obj6.png"",""img/obj2.png"",""img/obj11.png""],[0,""img/obj4.png"",""img/obj1.png""],[0,0,""img/obj8.png""]]","","","3,2,1,1,1,3,3,1,5","116","","","","","","","","","","",""
"vsl-grid-scene-snap","276","849197","0.0-5.0-8.0-47.0","","","[[0,""img/obj6.png"",""img/obj2.png""],[""img/obj1.png"",""img/obj10.png"",0],[""img/obj8.png"",0,""img/obj5.png""]]","","","1,2,1,2,1,3,2,2,6","44","","","","","","","","","","",""
"vsl-grid-attention-check","277","852284","0.0-5.0-9.0-0.0-0.0","","2081.9000000059605","[[""img/square.png"",0,""img/square.png""],[""img/square.png"",""img/attention.png"",""img/square.png""],[0,""img/square.png"",0]]","","","","","32","","","","","","","","","",""
"html-keyboard-response","278","853286","0.0-5.0-9.0-1.0","","null"," ","","","","","null","","","","","","","","","",""
"vsl-grid-scene-snap","279","855292","0.0-5.0-10.0-0.0","","","[[""img/obj12.png"",""img/obj7.png"",0],[""img/obj3.png"",0,""img/obj11.png""],[""img/obj9.png"",""img/obj4.png"",0]]","","","1,2,2,1,1,4,3,2,5","63","","","","","","","","","","",""
"vsl-grid-scene-snap","280","858302","0.0-5.0-10.0-1.0","","","[[0,""img/obj11.png"",""img/obj3.png""],[""img/obj4.png"",0,""img/obj9.png""],[""img/obj12.png"",""img/obj7.png"",0]]","","","3,1,2,1,3,4,2,1,5","99","","","","","","","","","","",""
"vsl-grid-scene-snap","281","861311","0.0-5.0-10.0-2.0","","","[[""img/obj6.png"",""img/obj2.png"",0],[""img/obj10.png"",0,""img/obj3.png""],[0,""img/obj5.png"",""img/obj9.png""]]","","","3,2,2,1,1,3,1,2,6","113","","","","","","","","","","",""
"vsl-grid-scene-snap","282","864326","0.0-5.0-10.0-3.0","","","[[0,""img/obj11.png"",0],[""img/obj4.png"",0,""img/obj1.png""],[""img/obj6.png"",""img/obj2.png"",""img/obj8.png""]]","","","3,2,1,1,3,3,2,1,5","132","","","","","","","","","","",""
"vsl-grid-scene-snap","283","867328","0.0-5.0-10.0-4.0","","","[[""img/obj3.png"",""img/obj6.png"",""img/obj2.png""],[""img/obj9.png"",""img/obj11.png"",0],[""img/obj4.png"",0,0]]","","","1,1,2,2,1,3,2,2,5","5","","","","","","","","","","",""
"vsl-grid-scene-snap","284","870330","0.0-5.0-10.0-5.0","","","[[""img/obj1.png"",""img/obj10.png"",0],[""img/obj8.png"",0,""img/obj5.png""],[0,""img/obj6.png"",""img/obj2.png""]]","","","1,1,1,2,3,3,2,1,6","20","","","","","","","","","","",""
"vsl-grid-scene-snap","285","873333","0.0-5.0-10.0-6.0","","","[[""img/obj1.png"",0,""img/obj11.png""],[""img/obj8.png"",""img/obj4.png"",0],[0,""img/obj6.png"",""img/obj2.png""]]","","","1,1,1,2,3,3,3,1,5","12","","","","","","","","","","",""
"vsl-grid-scene-snap","286","876336","0.0-5.0-10.0-7.0","","","[[""img/obj10.png"",0,""img/obj1.png""],[0,""img/obj5.png"",""img/obj8.png""],[""img/obj12.png"",""img/obj7.png"",0]]","","","3,1,1,1,3,4,1,1,6","102","","","","","","","","","","",""
"vsl-grid-scene-snap","287","879339","0.0-5.0-10.0-8.0","","","[[""img/obj12.png"",""img/obj7.png"",""img/obj3.png""],[0,""img/obj11.png"",""img/obj9.png""],[""img/obj4.png"",0,0]]","","","3,1,2,1,1,4,2,2,5","75","","","","","","","","","","",""
"vsl-grid-scene-snap","288","882345","0.0-5.0-10.0-9.0","","","[[""img/obj1.png"",0,0],[""img/obj8.png"",""img/obj10.png"",0],[""img/obj6.png"",""img/obj2.png"",""img/obj5.png""]]","","","1,1,1,1,3,3,2,2,6","32","","","","","","","","","","",""
"vsl-grid-scene-snap","289","885348","0.0-5.0-10.0-10.0","","","[[0,""img/obj12.png"",""img/obj7.png""],[""img/obj3.png"",0,""img/obj11.png""],[""img/obj9.png"",""img/obj4.png"",0]]","","","1,2,2,2,1,4,3,2,5","39","","","","","","","","","","",""
"vsl-grid-scene-snap","290","888350","0.0-5.0-10.0-11.0","","","[[""img/obj6.png"",""img/obj2.png"",""img/obj11.png""],[0,""img/obj4.png"",""img/obj3.png""],[0,0,""img/obj9.png""]]","","","3,2,2,1,1,3,3,1,5","117","","","","","","","","","","",""
"vsl-grid-scene-snap","291","891358","0.0-5.0-10.0-12.0","","","[[""img/obj12.png"",""img/obj7.png"",0],[0,""img/obj11.png"",""img/obj1.png""],[""img/obj4.png"",0,""img/obj8.png""]]","","","3,2,1,1,1,4,2,2,5","110","","","","","","","","","","",""
"vsl-grid-scene-snap","292","894361","0.0-5.0-10.0-13.0","","","[[""img/obj6.png"",""img/obj2.png"",0],[""img/obj1.png"",""img/obj10.png"",0],[""img/obj8.png"",0,""img/obj5.png""]]","","","1,2,1,1,1,3,2,2,6","68","","","","","","","","","","",""
"vsl-grid-scene-snap","293","897366","0.0-5.0-10.0-14.0","","","[[""img/obj10.png"",""img/obj12.png"",""img/obj7.png""],[""img/obj1.png"",""img/obj5.png"",0],[""img/obj8.png"",0,0]]","","","1,2,1,2,1,4,1,1,6","42","","","","","","","","","","",""
"vsl-grid-scene-snap","294","900369","0.0-5.0-10.0-15.0","","","[[""img/obj10.png"",""img/obj12.png"",""img/obj7.png""],[""img/obj3.png"",""img/obj5.png"",0],[""img/obj9.png"",0,0]]","","","1,2,2,2,1,4,1,1,6","43","","","","","","","","","","",""
"vsl-grid-scene-snap","295","903371","0.0-5.0-10.0-16.0","","","[[0,0,""img/obj11.png""],[""img/obj3.png"",""img/obj4.png"",0],[""img/obj9.png"",""img/obj12.png"",""img/obj7.png""]]","","","1,2,2,2,3,4,3,1,5","51","","","","","","","","","","",""
"vsl-grid-scene-snap","296","906373","0.0-5.0-10.0-17.0","","","[[""img/obj10.png"",0,""img/obj1.png""],[0,""img/obj5.png"",""img/obj8.png""],[0,""img/obj6.png"",""img/obj2.png""]]","","","3,1,1,2,3,3,1,1,6","92","","","","","","","","","","",""
"vsl-grid-scene-snap","297","909374","0.0-5.0-10.0-18.0","","","[[""img/obj3.png"",0,0],[""img/obj9.png"",""img/obj11.png"",0],[""img/obj4.png"",""img/obj12.png"",""img/obj7.png""]]","","","1,1,2,2,3,4,2,2,5","19","","","","","","","","","","",""
"vsl-grid-scene-snap","298","912394","0.0-5.0-10.0-19.0","","","[[""img/obj1.png"",0,""img/obj11.png""],[""img/obj8.png"",""img/obj4.png"",0],[0,""img/obj12.png"",""img/obj7.png""]]","","","1,1,1,2,3,4,3,1,5","14","","","","","","","","","","",""
"vsl-grid-scene-snap","299","915396","0.0-5.0-10.0-20.0","","","[[""img/obj6.png"",""img/obj2.png"",""img/obj3.png""],[0,""img/obj10.png"",""img/obj9.png""],[0,0,""img/obj5.png""]]","","","3,1,2,1,1,3,2,2,6","81","","","","","","","","","","",""
"vsl-grid-scene-snap","300","918399","0.0-5.0-10.0-21.0","","","[[""img/obj1.png"",""img/obj12.png"",""img/obj7.png""],[""img/obj8.png"",""img/obj11.png"",0],[""img/obj4.png"",0,0]]","","","1,1,1,2,1,4,2,2,5","6","","","","","","","","","","",""
"vsl-grid-scene-snap","301","921402","0.0-5.0-10.0-22.0","","","[[""img/obj6.png"",""img/obj2.png"",""img/obj1.png""],[0,""img/obj10.png"",""img/obj8.png""],[0,0,""img/obj5.png""]]","","","3,1,1,1,1,3,2,2,6","80","","","","","","","","","","",""
"vsl-grid-scene-snap","302","924416","0.0-5.0-10.0-23.0","","","[[""img/obj6.png"",""img/obj2.png"",""img/obj3.png""],[0,""img/obj11.png"",""img/obj9.png""],[""img/obj4.png"",0,0]]","","","3,1,2,1,1,3,2,2,5","73","","","","","","","","","","",""
"vsl-grid-scene-snap","303","927418","0.0-5.0-10.0-24.0","","","[[""img/obj10.png"",""img/obj6.png"",""img/obj2.png""],[""img/obj1.png"",""img/obj5.png"",0],[""img/obj8.png"",0,0]]","","","1,2,1,2,1,3,1,1,6","40","","","","","","","","","","",""
"vsl-grid-scene-snap","304","930420","0.0-5.0-10.0-25.0","","","[[0,""img/obj10.png"",0],[""img/obj1.png"",0,""img/obj5.png""],[""img/obj8.png"",""img/obj12.png"",""img/obj7.png""]]","","","1,2,1,2,3,4,2,1,6","54","","","","","","","","","","",""
"vsl-grid-scene-snap","305","933441","0.0-5.0-10.0-26.0","","","[[0,""img/obj6.png"",""img/obj2.png""],[""img/obj3.png"",0,""img/obj11.png""],[""img/obj9.png"",""img/obj4.png"",0]]","","","1,2,2,2,1,3,3,2,5","37","","","","","","","","","","",""
"vsl-grid-scene-snap","306","936455","0.0-5.0-10.0-27.0","","","[[""img/obj6.png"",""img/obj2.png"",""img/obj11.png""],[""img/obj1.png"",""img/obj4.png"",0],[""img/obj8.png"",0,0]]","","","1,2,1,1,1,3,3,1,5","64","","","","","","","","","","",""
"vsl-grid-scene-snap","307","939456","0.0-5.0-10.0-28.0","","","[[""img/obj1.png"",0,0],[""img/obj8.png"",""img/obj10.png"",0],[""img/obj12.png"",""img/obj7.png"",""img/obj5.png""]]","","","1,1,1,1,3,4,2,2,6","34","","","","","","","","","","",""
"vsl-grid-scene-snap","308","942460","0.0-5.0-10.0-29.0","","","[[0,""img/obj6.png"",""img/obj2.png""],[0,""img/obj11.png"",""img/obj3.png""],[""img/obj4.png"",0,""img/obj9.png""]]","","","3,2,2,2,1,3,2,2,5","121","","","","","","","","","","",""
"vsl-grid-scene-snap","309","945463","0.0-5.0-10.0-30.0","","","[[0,""img/obj6.png"",""img/obj2.png""],[""img/obj10.png"",0,""img/obj3.png""],[0,""img/obj5.png"",""img/obj9.png""]]","","","3,2,2,2,1,3,1,2,6","125","","","","","","","","","","",""
"vsl-grid-scene-snap","310","948466","0.0-5.0-10.0-31.0","","","[[0,0,""img/obj11.png""],[0,""img/obj4.png"",""img/obj3.png""],[""img/obj6.png"",""img/obj2.png"",""img/obj9.png""]]","","","3,2,2,1,3,3,3,1,5","141","","","","","","","","","","",""
"vsl-grid-scene-snap","311","951469","0.0-5.0-10.0-32.0","","","[[""img/obj3.png"",0,""img/obj11.png""],[""img/obj9.png"",""img/obj4.png"",0],[""img/obj6.png"",""img/obj2.png"",0]]","","","1,1,2,1,3,3,3,1,5","25","","","","","","","","","","",""
"vsl-grid-scene-snap","312","954471","0.0-5.0-10.0-33.0","","","[[""img/obj3.png"",0,""img/obj11.png""],[""img/obj9.png"",""img/obj4.png"",0],[0,""img/obj12.png"",""img/obj7.png""]]","","","1,1,2,2,3,4,3,1,5","15","","","","","","","","","","",""
"vsl-grid-scene-snap","313","957474","0.0-5.0-10.0-34.0","","","[[0,""img/obj10.png"",0],[""img/obj3.png"",0,""img/obj5.png""],[""img/obj9.png"",""img/obj6.png"",""img/obj2.png""]]","","","1,2,2,2,3,3,2,1,6","53","","","","","","","","","","",""
"vsl-grid-scene-snap","314","960476","0.0-5.0-10.0-35.0","","","[[""img/obj1.png"",""img/obj10.png"",0],[""img/obj8.png"",0,""img/obj5.png""],[0,""img/obj12.png"",""img/obj7.png""]]","","","1,1,1,2,3,4,2,1,6","22","","","","","","","","","","",""
"vsl-grid-scene-snap","315","963477","0.0-5.0-10.0-36.0","","","[[0,""img/obj12.png"",""img/obj7.png""],[""img/obj1.png"",""img/obj10.png"",0],[""img/obj8.png"",0,""img/obj5.png""]]","","","1,2,1,2,1,4,2,2,6","46","","","","","","","","","","",""
"vsl-grid-scene-snap","316","966480","0.0-5.0-10.0-37.0","","","[[0,0,""img/obj1.png""],[0,""img/obj10.png"",""img/obj8.png""],[""img/obj6.png"",""img/obj2.png"",""img/obj5.png""]]","","","3,1,1,1,3,3,2,2,6","104","","","","","","","","","","",""
"vsl-grid-scene-snap","317","969484","0.0-5.0-10.0-38.0","","","[[""img/obj3.png"",""img/obj10.png"",0],[""img/obj9.png"",0,""img/obj5.png""],[0,""img/obj12.png"",""img/obj7.png""]]","","","1,1,2,2,3,4,2,1,6","23","","","","","","","","","","",""
"vsl-grid-scene-snap","318","972490","0.0-5.0-10.0-39.0","","","[[""img/obj10.png"",""img/obj12.png"",""img/obj7.png""],[0,""img/obj5.png"",""img/obj1.png""],[0,0,""img/obj8.png""]]","","","3,2,1,2,1,4,1,1,6","130","","","","","","","","","","",""
"vsl-grid-scene-snap","319","975493","0.0-5.0-10.0-40.0","","","[[""img/obj1.png"",""img/obj10.png"",0],[""img/obj8.png"",0,""img/obj5.png""],[""img/obj12.png"",""img/obj7.png"",0]]","","","1,1,1,1,3,4,2,1,6","30","","","","","","","","","","",""
"vsl-grid-scene-snap","320","978496","0.0-5.0-10.0-41.0","","","[[""img/obj6.png"",""img/obj2.png"",0],[0,""img/obj11.png"",""img/obj1.png""],[""img/obj4.png"",0,""img/obj8.png""]]","","","3,2,1,1,1,3,2,2,5","108","","","","","","","","","","",""
"vsl-grid-scene-snap","321","981502","0.0-5.0-10.0-42.0","","","[[0,""img/obj10.png"",0],[""img/obj1.png"",0,""img/obj5.png""],[""img/obj8.png"",""img/obj6.png"",""img/obj2.png""]]","","","1,2,1,2,3,3,2,1,6","52","","","","","","","","","","",""
"vsl-grid-scene-snap","322","984506","0.0-5.0-10.0-43.0","","","[[""img/obj12.png"",""img/obj7.png"",""img/obj3.png""],[0,""img/obj10.png"",""img/obj9.png""],[0,0,""img/obj5.png""]]","","","3,1,2,1,1,4,2,2,6","83","","","","","","","","","","",""
"vsl-grid-scene-snap","323","987511","0.0-5.0-10.0-44.0","","","[[""img/obj1.png"",""img/obj10.png"",0],[""img/obj8.png"",0,""img/obj5.png""],[""img/obj6.png"",""img/obj2.png"",0]]","","","1,1,1,1,3,3,2,1,6","28","","","","","","","","","","",""
"vsl-grid-scene-snap","324","990514","0.0-5.0-10.0-45.0","","","[[""img/obj1.png"",0,0],[""img/obj8.png"",""img/obj11.png"",0],[""img/obj4.png"",""img/obj12.png"",""img/obj7.png""]]","","","1,1,1,2,3,4,2,2,5","18","","","","","","","","","","",""
"vsl-grid-scene-snap","325","993518","0.0-5.0-10.0-46.0","","","[[""img/obj10.png"",0,""img/obj1.png""],[0,""img/obj5.png"",""img/obj8.png""],[0,""img/obj12.png"",""img/obj7.png""]]","","","3,1,1,2,3,4,1,1,6","94","","","","","","","","","","",""
"vsl-grid-scene-snap","326","996532","0.0-5.0-10.0-47.0","","","[[0,""img/obj12.png"",""img/obj7.png""],[""img/obj10.png"",0,""img/obj1.png""],[0,""img/obj5.png"",""img/obj8.png""]]","","","3,2,1,2,1,4,1,2,6","126","","","","","","","","","","",""
"html-keyboard-response","327","998541","0.0-6.0-0.0","","null","<p>Your practice session is now over.</p><p>The test session will start in 2 minutes.<p><p>You can use these two minutes to relaxe your eyes.</p><p> <br> </p><p>Seconds remaining:</p><p> <br> </p>120","","","","","null","","","","","","","","","",""
"html-keyboard-response","328","999543","0.0-6.0-1.0","","null","<p>Your practice session is now over.</p><p>The test session will start in 2 minutes.<p><p>You can use these two minutes to relaxe your eyes.</p><p> <br> </p><p>Seconds remaining:</p><p> <br> </p>119","","","","","null","","","","","","","","","",""
"html-keyboard-response","329","1000545","0.0-6.0-2.0","","null","<p>Your practice session is now over.</p><p>The test session will start in 2 minutes.<p><p>You can use these two minutes to relaxe your eyes.</p><p> <br> </p><p>Seconds remaining:</p><p> <br> </p>118","","","","","null","","","","","","","","","",""
"html-keyboard-response","330","1001547","0.0-6.0-3.0","","null","<p>Your practice session is now over.</p><p>The test session will start in 2 minutes.<p><p>You can use these two minutes to relaxe your eyes.</p><p> <br> </p><p>Seconds remaining:</p><p> <br> </p>117","","","","","null","","","","","","","","","",""
"html-keyboard-response","331","1002554","0.0-6.0-4.0","","null","<p>Your practice session is now over.</p><p>The test session will start in 2 minutes.<p><p>You can use these two minutes to relaxe your eyes.</p><p> <br> </p><p>Seconds remaining:</p><p> <br> </p>116","","","","","null","","","","","","","","","",""
"html-keyboard-response","332","1003556","0.0-6.0-5.0","","null","<p>Your practice session is now over.</p><p>The test session will start in 2 minutes.<p><p>You can use these two minutes to relaxe your eyes.</p><p> <br> </p><p>Seconds remaining:</p><p> <br> </p>115","","","","","null","","","","","","","","","",""
"html-keyboard-response","333","1004557","0.0-6.0-6.0","","null","<p>Your practice session is now over.</p><p>The test session will start in 2 minutes.<p><p>You can use these two minutes to relaxe your eyes.</p><p> <br> </p><p>Seconds remaining:</p><p> <br> </p>114","","","","","null","","","","","","","","","",""
"html-keyboard-response","334","1005560","0.0-6.0-7.0","","null","<p>Your practice session is now over.</p><p>The test session will start in 2 minutes.<p><p>You can use these two minutes to relaxe your eyes.</p><p> <br> </p><p>Seconds remaining:</p><p> <br> </p>113","","","","","null","","","","","","","","","",""
"html-keyboard-response","335","1006562","0.0-6.0-8.0","","null","<p>Your practice session is now over.</p><p>The test session will start in 2 minutes.<p><p>You can use these two minutes to relaxe your eyes.</p><p> <br> </p><p>Seconds remaining:</p><p> <br> </p>112","","","","","null","","","","","","","","","",""
"html-keyboard-response","336","1007569","0.0-6.0-9.0","","null","<p>Your practice session is now over.</p><p>The test session will start in 2 minutes.<p><p>You can use these two minutes to relaxe your eyes.</p><p> <br> </p><p>Seconds remaining:</p><p> <br> </p>111","","","","","null","","","","","","","","","",""
"html-keyboard-response","337","1008571","0.0-6.0-10.0","","null","<p>Your practice session is now over.</p><p>The test session will start in 2 minutes.<p><p>You can use these two minutes to relaxe your eyes.</p><p> <br> </p><p>Seconds remaining:</p><p> <br> </p>110","","","","","null","","","","","","","","","",""
"html-keyboard-response","338","1009599","0.0-6.0-11.0","","null","<p>Your practice session is now over.</p><p>The test session will start in 2 minutes.<p><p>You can use these two minutes to relaxe your eyes.</p><p> <br> </p><p>Seconds remaining:</p><p> <br> </p>109","","","","","null","","","","","","","","","",""
"html-keyboard-response","339","1010609","0.0-6.0-12.0","","null","<p>Your practice session is now over.</p><p>The test session will start in 2 minutes.<p><p>You can use these two minutes to relaxe your eyes.</p><p> <br> </p><p>Seconds remaining:</p><p> <br> </p>108","","","","","null","","","","","","","","","",""
"html-keyboard-response","340","1011611","0.0-6.0-13.0","","null","<p>Your practice session is now over.</p><p>The test session will start in 2 minutes.<p><p>You can use these two minutes to relaxe your eyes.</p><p> <br> </p><p>Seconds remaining:</p><p> <br> </p>107","","","","","null","","","","","","","","","",""
"html-keyboard-response","341","1012613","0.0-6.0-14.0","","null","<p>Your practice session is now over.</p><p>The test session will start in 2 minutes.<p><p>You can use these two minutes to relaxe your eyes.</p><p> <br> </p><p>Seconds remaining:</p><p> <br> </p>106","","","","","null","","","","","","","","","",""
"html-keyboard-response","342","1013617","0.0-6.0-15.0","","null","<p>Your practice session is now over.</p><p>The test session will start in 2 minutes.<p><p>You can use these two minutes to relaxe your eyes.</p><p> <br> </p><p>Seconds remaining:</p><p> <br> </p>105","","","","","null","","","","","","","","","",""
"html-keyboard-response","343","1014620","0.0-6.0-16.0","","null","<p>Your practice session is now over.</p><p>The test session will start in 2 minutes.<p><p>You can use these two minutes to relaxe your eyes.</p><p> <br> </p><p>Seconds remaining:</p><p> <br> </p>104","","","","","null","","","","","","","","","",""
"html-keyboard-response","344","1015623","0.0-6.0-17.0","","null","<p>Your practice session is now over.</p><p>The test session will start in 2 minutes.<p><p>You can use these two minutes to relaxe your eyes.</p><p> <br> </p><p>Seconds remaining:</p><p> <br> </p>103","","","","","null","","","","","","","","","",""
"html-keyboard-response","345","1016624","0.0-6.0-18.0","","null","<p>Your practice session is now over.</p><p>The test session will start in 2 minutes.<p><p>You can use these two minutes to relaxe your eyes.</p><p> <br> </p><p>Seconds remaining:</p><p> <br> </p>102","","","","","null","","","","","","","","","",""
"html-keyboard-response","346","1017627","0.0-6.0-19.0","","null","<p>Your practice session is now over.</p><p>The test session will start in 2 minutes.<p><p>You can use these two minutes to relaxe your eyes.</p><p> <br> </p><p>Seconds remaining:</p><p> <br> </p>101","","","","","null","","","","","","","","","",""
"html-keyboard-response","347","1018630","0.0-6.0-20.0","","null","<p>Your practice session is now over.</p><p>The test session will start in 2 minutes.<p><p>You can use these two minutes to relaxe your eyes.</p><p> <br> </p><p>Seconds remaining:</p><p> <br> </p>100","","","","","null","","","","","","","","","",""
"html-keyboard-response","348","1019632","0.0-6.0-21.0","","null","<p>Your practice session is now over.</p><p>The test session will start in 2 minutes.<p><p>You can use these two minutes to relaxe your eyes.</p><p> <br> </p><p>Seconds remaining:</p><p> <br> </p>99","","","","","null","","","","","","","","","",""
"html-keyboard-response","349","1020634","0.0-6.0-22.0","","null","<p>Your practice session is now over.</p><p>The test session will start in 2 minutes.<p><p>You can use these two minutes to relaxe your eyes.</p><p> <br> </p><p>Seconds remaining:</p><p> <br> </p>98","","","","","null","","","","","","","","","",""
"html-keyboard-response","350","1021637","0.0-6.0-23.0","","null","<p>Your practice session is now over.</p><p>The test session will start in 2 minutes.<p><p>You can use these two minutes to relaxe your eyes.</p><p> <br> </p><p>Seconds remaining:</p><p> <br> </p>97","","","","","null","","","","","","","","","",""
"html-keyboard-response","351","1022638","0.0-6.0-24.0","","null","<p>Your practice session is now over.</p><p>The test session will start in 2 minutes.<p><p>You can use these two minutes to relaxe your eyes.</p><p> <br> </p><p>Seconds remaining:</p><p> <br> </p>96","","","","","null","","","","","","","","","",""
"html-keyboard-response","352","1023642","0.0-6.0-25.0","","null","<p>Your practice session is now over.</p><p>The test session will start in 2 minutes.<p><p>You can use these two minutes to relaxe your eyes.</p><p> <br> </p><p>Seconds remaining:</p><p> <br> </p>95","","","","","null","","","","","","","","","",""
"html-keyboard-response","353","1024645","0.0-6.0-26.0","","null","<p>Your practice session is now over.</p><p>The test session will start in 2 minutes.<p><p>You can use these two minutes to relaxe your eyes.</p><p> <br> </p><p>Seconds remaining:</p><p> <br> </p>94","","","","","null","","","","","","","","","",""
"html-keyboard-response","354","1025650","0.0-6.0-27.0","","null","<p>Your practice session is now over.</p><p>The test session will start in 2 minutes.<p><p>You can use these two minutes to relaxe your eyes.</p><p> <br> </p><p>Seconds remaining:</p><p> <br> </p>93","","","","","null","","","","","","","","","",""
"html-keyboard-response","355","1026652","0.0-6.0-28.0","","null","<p>Your practice session is now over.</p><p>The test session will start in 2 minutes.<p><p>You can use these two minutes to relaxe your eyes.</p><p> <br> </p><p>Seconds remaining:</p><p> <br> </p>92","","","","","null","","","","","","","","","",""
"html-keyboard-response","356","1027655","0.0-6.0-29.0","","null","<p>Your practice session is now over.</p><p>The test session will start in 2 minutes.<p><p>You can use these two minutes to relaxe your eyes.</p><p> <br> </p><p>Seconds remaining:</p><p> <br> </p>91","","","","","null","","","","","","","","","",""
"html-keyboard-response","357","1028657","0.0-6.0-30.0","","null","<p>Your practice session is now over.</p><p>The test session will start in 2 minutes.<p><p>You can use these two minutes to relaxe your eyes.</p><p> <br> </p><p>Seconds remaining:</p><p> <br> </p>90","","","","","null","","","","","","","","","",""
"html-keyboard-response","358","1029660","0.0-6.0-31.0","","null","<p>Your practice session is now over.</p><p>The test session will start in 2 minutes.<p><p>You can use these two minutes to relaxe your eyes.</p><p> <br> </p><p>Seconds remaining:</p><p> <br> </p>89","","","","","null","","","","","","","","","",""
"html-keyboard-response","359","1030663","0.0-6.0-32.0","","null","<p>Your practice session is now over.</p><p>The test session will start in 2 minutes.<p><p>You can use these two minutes to relaxe your eyes.</p><p> <br> </p><p>Seconds remaining:</p><p> <br> </p>88","","","","","null","","","","","","","","","",""
"html-keyboard-response","360","1031668","0.0-6.0-33.0","","null","<p>Your practice session is now over.</p><p>The test session will start in 2 minutes.<p><p>You can use these two minutes to relaxe your eyes.</p><p> <br> </p><p>Seconds remaining:</p><p> <br> </p>87","","","","","null","","","","","","","","","",""
"html-keyboard-response","361","1032671","0.0-6.0-34.0","","null","<p>Your practice session is now over.</p><p>The test session will start in 2 minutes.<p><p>You can use these two minutes to relaxe your eyes.</p><p> <br> </p><p>Seconds remaining:</p><p> <br> </p>86","","","","","null","","","","","","","","","",""
"html-keyboard-response","362","1033674","0.0-6.0-35.0","","null","<p>Your practice session is now over.</p><p>The test session will start in 2 minutes.<p><p>You can use these two minutes to relaxe your eyes.</p><p> <br> </p><p>Seconds remaining:</p><p> <br> </p>85","","","","","null","","","","","","","","","",""
"html-keyboard-response","363","1034676","0.0-6.0-36.0","","null","<p>Your practice session is now over.</p><p>The test session will start in 2 minutes.<p><p>You can use these two minutes to relaxe your eyes.</p><p> <br> </p><p>Seconds remaining:</p><p> <br> </p>84","","","","","null","","","","","","","","","",""
"html-keyboard-response","364","1035682","0.0-6.0-37.0","","null","<p>Your practice session is now over.</p><p>The test session will start in 2 minutes.<p><p>You can use these two minutes to relaxe your eyes.</p><p> <br> </p><p>Seconds remaining:</p><p> <br> </p>83","","","","","null","","","","","","","","","",""
"html-keyboard-response","365","1036686","0.0-6.0-38.0","","null","<p>Your practice session is now over.</p><p>The test session will start in 2 minutes.<p><p>You can use these two minutes to relaxe your eyes.</p><p> <br> </p><p>Seconds remaining:</p><p> <br> </p>82","","","","","null","","","","","","","","","",""
"html-keyboard-response","366","1037688","0.0-6.0-39.0","","null","<p>Your practice session is now over.</p><p>The test session will start in 2 minutes.<p><p>You can use these two minutes to relaxe your eyes.</p><p> <br> </p><p>Seconds remaining:</p><p> <br> </p>81","","","","","null","","","","","","","","","",""
"html-keyboard-response","367","1038690","0.0-6.0-40.0","","null","<p>Your practice session is now over.</p><p>The test session will start in 2 minutes.<p><p>You can use these two minutes to relaxe your eyes.</p><p> <br> </p><p>Seconds remaining:</p><p> <br> </p>80","","","","","null","","","","","","","","","",""
"html-keyboard-response","368","1039692","0.0-6.0-41.0","","null","<p>Your practice session is now over.</p><p>The test session will start in 2 minutes.<p><p>You can use these two minutes to relaxe your eyes.</p><p> <br> </p><p>Seconds remaining:</p><p> <br> </p>79","","","","","null","","","","","","","","","",""
"html-keyboard-response","369","1040694","0.0-6.0-42.0","","null","<p>Your practice session is now over.</p><p>The test session will start in 2 minutes.<p><p>You can use these two minutes to relaxe your eyes.</p><p> <br> </p><p>Seconds remaining:</p><p> <br> </p>78","","","","","null","","","","","","","","","",""
"html-keyboard-response","370","1041772","0.0-6.0-43.0","","null","<p>Your practice session is now over.</p><p>The test session will start in 2 minutes.<p><p>You can use these two minutes to relaxe your eyes.</p><p> <br> </p><p>Seconds remaining:</p><p> <br> </p>77","","","","","null","","","","","","","","","",""
"html-keyboard-response","371","1042775","0.0-6.0-44.0","","null","<p>Your practice session is now over.</p><p>The test session will start in 2 minutes.<p><p>You can use these two minutes to relaxe your eyes.</p><p> <br> </p><p>Seconds remaining:</p><p> <br> </p>76","","","","","null","","","","","","","","","",""
"html-keyboard-response","372","1043777","0.0-6.0-45.0","","null","<p>Your practice session is now over.</p><p>The test session will start in 2 minutes.<p><p>You can use these two minutes to relaxe your eyes.</p><p> <br> </p><p>Seconds remaining:</p><p> <br> </p>75","","","","","null","","","","","","","","","",""
"html-keyboard-response","373","1044780","0.0-6.0-46.0","","null","<p>Your practice session is now over.</p><p>The test session will start in 2 minutes.<p><p>You can use these two minutes to relaxe your eyes.</p><p> <br> </p><p>Seconds remaining:</p><p> <br> </p>74","","","","","null","","","","","","","","","",""
"html-keyboard-response","374","1045782","0.0-6.0-47.0","","null","<p>Your practice session is now over.</p><p>The test session will start in 2 minutes.<p><p>You can use these two minutes to relaxe your eyes.</p><p> <br> </p><p>Seconds remaining:</p><p> <br> </p>73","","","","","null","","","","","","","","","",""
"html-keyboard-response","375","1046784","0.0-6.0-48.0","","null","<p>Your practice session is now over.</p><p>The test session will start in 2 minutes.<p><p>You can use these two minutes to relaxe your eyes.</p><p> <br> </p><p>Seconds remaining:</p><p> <br> </p>72","","","","","null","","","","","","","","","",""
"html-keyboard-response","376","1047785","0.0-6.0-49.0","","null","<p>Your practice session is now over.</p><p>The test session will start in 2 minutes.<p><p>You can use these two minutes to relaxe your eyes.</p><p> <br> </p><p>Seconds remaining:</p><p> <br> </p>71","","","","","null","","","","","","","","","",""
"html-keyboard-response","377","1048788","0.0-6.0-50.0","","null","<p>Your practice session is now over.</p><p>The test session will start in 2 minutes.<p><p>You can use these two minutes to relaxe your eyes.</p><p> <br> </p><p>Seconds remaining:</p><p> <br> </p>70","","","","","null","","","","","","","","","",""
"html-keyboard-response","378","1049791","0.0-6.0-51.0","","null","<p>Your practice session is now over.</p><p>The test session will start in 2 minutes.<p><p>You can use these two minutes to relaxe your eyes.</p><p> <br> </p><p>Seconds remaining:</p><p> <br> </p>69","","","","","null","","","","","","","","","",""
"html-keyboard-response","379","1050805","0.0-6.0-52.0","","null","<p>Your practice session is now over.</p><p>The test session will start in 2 minutes.<p><p>You can use these two minutes to relaxe your eyes.</p><p> <br> </p><p>Seconds remaining:</p><p> <br> </p>68","","","","","null","","","","","","","","","",""
"html-keyboard-response","380","1051808","0.0-6.0-53.0","","null","<p>Your practice session is now over.</p><p>The test session will start in 2 minutes.<p><p>You can use these two minutes to relaxe your eyes.</p><p> <br> </p><p>Seconds remaining:</p><p> <br> </p>67","","","","","null","","","","","","","","","",""
"html-keyboard-response","381","1052809","0.0-6.0-54.0","","null","<p>Your practice session is now over.</p><p>The test session will start in 2 minutes.<p><p>You can use these two minutes to relaxe your eyes.</p><p> <br> </p><p>Seconds remaining:</p><p> <br> </p>66","","","","","null","","","","","","","","","",""
"html-keyboard-response","382","1053811","0.0-6.0-55.0","","null","<p>Your practice session is now over.</p><p>The test session will start in 2 minutes.<p><p>You can use these two minutes to relaxe your eyes.</p><p> <br> </p><p>Seconds remaining:</p><p> <br> </p>65","","","","","null","","","","","","","","","",""
"html-keyboard-response","383","1054820","0.0-6.0-56.0","","null","<p>Your practice session is now over.</p><p>The test session will start in 2 minutes.<p><p>You can use these two minutes to relaxe your eyes.</p><p> <br> </p><p>Seconds remaining:</p><p> <br> </p>64","","","","","null","","","","","","","","","",""
"html-keyboard-response","384","1055845","0.0-6.0-57.0","","null","<p>Your practice session is now over.</p><p>The test session will start in 2 minutes.<p><p>You can use these two minutes to relaxe your eyes.</p><p> <br> </p><p>Seconds remaining:</p><p> <br> </p>63","","","","","null","","","","","","","","","",""
