"trial_type","trial_index","time_elapsed","internal_node_id","success","rt","stimulus","button_pressed","responses","training_vector","training_matrixRow","key_press","test_part","correct_response","test_number","test_vector","correct","image_switchboard","scene_order","participant","study","session"
"pavlovia","0","2","0.0-0.0","","","","","","","","","","","","","","","","","",""
"fullscreen","1","1831","0.0-1.0","true","","","","","","","","","","","","","","","","",""
"html-button-response","2","2688","0.0-2.0","","854.5999999940395","<p style=""text-align: justify;margin-left: 15%; margin-right:15%"">You are participating in an experiment at the Vision Lab of the Department of Cognitive Science, Central European University.  One of our main questions is what kind of representations we can create about our visual environment and how these representations influence our behavior. At our lab we use multiple methods, for example behavioral experiments and computational models. In this experiment you will observe scenes consisting of abstract shapes and answer simple questions about them. <br><br>At the beginning and throughout the experiment you will receive precise information about what to do. The experiment takes about 25 minutes in total. <br><br>The test is voluntary, and you can withdraw your participation at any time. We treat your personal information confidentially. <br>Only those people who work on this research project have access to your data. We will work with group level statistics. We will only report the results of the group in scientific publications and conferences. This research was approved by the Hungarian Psychological Research Ethics Committee.<br><br>If you have any further questions about the study, you can contact the experimenter, Beata Tunde Szabo, PhD Student. Contact: 1051 Nador u. 11. E-mail: szabo_beata-tunde@phd.ceu.edu <br><br>By pressing the button below you indicate that you read this information, found it sufficent, and you consent to participate in the experiment. <br><br> </p>","0","","","","","","","","","","","","","",""
"survey-html-form","3","5579","0.0-3.0","","2888.9000000059605","","","{""Age"":""2"",""gender"":""Female"",""gender_other"":""""}","","","","","","","","","","","","",""
"html-button-response","4","7277","0.0-4.0","","1696.6000000089407","<p style=""text-align: justify;margin-left: 15%; margin-right:15%""> This is your practice session. You will see a checkerboard with random simple shapes appearing in different positions in the checkerboard. Your task is simply to observe the patterns so that you would be able to answer some questions about the sequence after the practice session.  The session will last for about 15 minutes.  Please, pay attention to EACH display! <br><br>Occasionally, there will be an attention check asking you to press the spacebar. ","0","","","","","","","","","","","","","",""
"vsl-grid-scene-snap","5","9279","0.0-5.0-0.0-0.0","","","[[""img/obj12.png"",0,""img/obj10.png""],[""img/obj7.png"",""img/obj3.png"",0],[0,""img/obj2.png"",""img/obj6.png""]]","","","1,1,2,2,3,3,3,1,5","13","","","","","","","","","","",""
"vsl-grid-scene-snap","6","12292","0.0-5.0-0.0-1.0","","","[[0,""img/obj9.png"",""img/obj1.png""],[""img/obj12.png"",0,""img/obj10.png""],[""img/obj7.png"",""img/obj3.png"",0]]","","","1,2,2,2,1,4,3,2,5","39","","","","","","","","","","",""
"vsl-grid-scene-snap","7","15302","0.0-5.0-0.0-2.0","","","[[0,""img/obj2.png"",""img/obj6.png""],[""img/obj12.png"",0,""img/obj10.png""],[""img/obj7.png"",""img/obj3.png"",0]]","","","1,2,2,2,1,3,3,2,5","37","","","","","","","","","","",""
"vsl-grid-scene-snap","8","18313","0.0-5.0-0.0-3.0","","","[[""img/obj2.png"",""img/obj6.png"",""img/obj10.png""],[0,""img/obj3.png"",""img/obj12.png""],[0,0,""img/obj7.png""]]","","","3,2,2,1,1,3,3,1,5","117","","","","","","","","","","",""
"vsl-grid-scene-snap","9","21316","0.0-5.0-0.0-4.0","","","[[""img/obj12.png"",""img/obj9.png"",""img/obj1.png""],[""img/obj7.png"",""img/obj4.png"",0],[0,0,""img/obj11.png""]]","","","1,1,2,2,1,4,2,2,6","11","","","","","","","","","","",""
"vsl-grid-scene-snap","10","24317","0.0-5.0-0.0-5.0","","","[[0,""img/obj9.png"",""img/obj1.png""],[""img/obj12.png"",""img/obj4.png"",0],[""img/obj7.png"",0,""img/obj11.png""]]","","","1,2,2,2,1,4,2,2,6","47","","","","","","","","","","",""
"vsl-grid-scene-snap","11","27331","0.0-5.0-0.0-6.0","","","[[""img/obj9.png"",""img/obj1.png"",""img/obj8.png""],[0,""img/obj10.png"",""img/obj5.png""],[""img/obj3.png"",0,0]]","","","3,1,1,1,1,4,2,2,5","74","","","","","","","","","","",""
"vsl-grid-scene-snap","12","30344","0.0-5.0-0.0-7.0","","","[[""img/obj8.png"",""img/obj9.png"",""img/obj1.png""],[""img/obj5.png"",""img/obj4.png"",0],[0,0,""img/obj11.png""]]","","","1,1,1,2,1,4,2,2,6","10","","","","","","","","","","",""
"vsl-grid-scene-snap","13","33352","0.0-5.0-0.0-8.0","","","[[0,0,""img/obj8.png""],[0,""img/obj10.png"",""img/obj5.png""],[""img/obj3.png"",""img/obj2.png"",""img/obj6.png""]]","","","3,1,1,2,3,3,2,2,5","84","","","","","","","","","","",""
"vsl-grid-scene-snap","14","36370","0.0-5.0-0.0-9.0","","","[[""img/obj12.png"",""img/obj2.png"",""img/obj6.png""],[""img/obj7.png"",""img/obj10.png"",0],[""img/obj3.png"",0,0]]","","","1,1,2,2,1,3,2,2,5","5","","","","","","","","","","",""
"vsl-grid-scene-snap","15","39388","0.0-5.0-0.0-10.0","","","[[""img/obj2.png"",""img/obj6.png"",0],[0,""img/obj10.png"",""img/obj12.png""],[""img/obj3.png"",0,""img/obj7.png""]]","","","3,2,2,1,1,3,2,2,5","109","","","","","","","","","","",""
"vsl-grid-scene-snap","16","42406","0.0-5.0-0.0-11.0","","","[[""img/obj9.png"",""img/obj1.png"",0],[""img/obj4.png"",0,""img/obj8.png""],[0,""img/obj11.png"",""img/obj5.png""]]","","","3,2,1,1,1,4,1,2,6","114","","","","","","","","","","",""
"vsl-grid-scene-snap","17","45413","0.0-5.0-0.0-12.0","","","[[""img/obj2.png"",""img/obj6.png"",0],[""img/obj8.png"",""img/obj4.png"",0],[""img/obj5.png"",0,""img/obj11.png""]]","","","1,2,1,1,1,3,2,2,6","68","","","","","","","","","","",""
"vsl-grid-scene-snap","18","48421","0.0-5.0-0.0-13.0","","","[[""img/obj4.png"",0,""img/obj8.png""],[0,""img/obj11.png"",""img/obj5.png""],[0,""img/obj2.png"",""img/obj6.png""]]","","","3,1,1,2,3,3,1,1,6","92","","","","","","","","","","",""
"vsl-grid-scene-snap","19","51433","0.0-5.0-0.0-14.0","","","[[0,""img/obj2.png"",""img/obj6.png""],[0,""img/obj10.png"",""img/obj8.png""],[""img/obj3.png"",0,""img/obj5.png""]]","","","3,2,1,2,1,3,2,2,5","120","","","","","","","","","","",""
"vsl-grid-scene-snap","20","54441","0.0-5.0-0.0-15.0","","","[[0,0,""img/obj12.png""],[0,""img/obj10.png"",""img/obj7.png""],[""img/obj3.png"",""img/obj2.png"",""img/obj6.png""]]","","","3,1,2,2,3,3,2,2,5","85","","","","","","","","","","",""
"vsl-grid-scene-snap","21","57453","0.0-5.0-0.0-16.0","","","[[0,0,""img/obj10.png""],[0,""img/obj3.png"",""img/obj8.png""],[""img/obj9.png"",""img/obj1.png"",""img/obj5.png""]]","","","3,2,1,1,3,4,3,1,5","142","","","","","","","","","","",""
"vsl-grid-scene-snap","22","60468","0.0-5.0-0.0-17.0","","","[[""img/obj8.png"",""img/obj9.png"",""img/obj1.png""],[""img/obj5.png"",0,""img/obj10.png""],[0,""img/obj3.png"",0]]","","","1,1,1,2,1,4,3,2,5","2","","","","","","","","","","",""
"vsl-grid-scene-snap","23","63483","0.0-5.0-0.0-18.0","","","[[0,0,""img/obj8.png""],[0,""img/obj4.png"",""img/obj5.png""],[""img/obj9.png"",""img/obj1.png"",""img/obj11.png""]]","","","3,1,1,1,3,4,2,2,6","106","","","","","","","","","","",""
"vsl-grid-scene-snap","24","66507","0.0-5.0-0.0-19.0","","","[[""img/obj4.png"",""img/obj9.png"",""img/obj1.png""],[0,""img/obj11.png"",""img/obj8.png""],[0,0,""img/obj5.png""]]","","","3,2,1,2,1,4,1,1,6","130","","","","","","","","","","",""
"vsl-grid-scene-snap","25","69527","0.0-5.0-0.0-20.0","","","[[""img/obj9.png"",""img/obj1.png"",0],[""img/obj4.png"",0,""img/obj12.png""],[0,""img/obj11.png"",""img/obj7.png""]]","","","3,2,2,1,1,4,1,2,6","115","","","","","","","","","","",""
"vsl-grid-scene-snap","26","72541","0.0-5.0-0.0-21.0","","","[[""img/obj4.png"",0,""img/obj8.png""],[0,""img/obj11.png"",""img/obj5.png""],[""img/obj2.png"",""img/obj6.png"",0]]","","","3,1,1,1,3,3,1,1,6","100","","","","","","","","","","",""
"vsl-grid-scene-snap","27","75555","0.0-5.0-0.0-22.0","","","[[""img/obj8.png"",""img/obj2.png"",""img/obj6.png""],[""img/obj5.png"",""img/obj4.png"",0],[0,0,""img/obj11.png""]]","","","1,1,1,2,1,3,2,2,6","8","","","","","","","","","","",""
"vsl-grid-scene-snap","28","78571","0.0-5.0-0.0-23.0","","","[[""img/obj2.png"",""img/obj6.png"",""img/obj10.png""],[""img/obj12.png"",""img/obj3.png"",0],[""img/obj7.png"",0,0]]","","","1,2,2,1,1,3,3,1,5","65","","","","","","","","","","",""
"vsl-grid-scene-snap","29","81586","0.0-5.0-0.0-24.0","","","[[""img/obj4.png"",""img/obj9.png"",""img/obj1.png""],[""img/obj12.png"",""img/obj11.png"",0],[""img/obj7.png"",0,0]]","","","1,2,2,2,1,4,1,1,6","43","","","","","","","","","","",""
"vsl-grid-scene-snap","30","84601","0.0-5.0-0.0-25.0","","","[[0,0,""img/obj10.png""],[0,""img/obj3.png"",""img/obj12.png""],[""img/obj9.png"",""img/obj1.png"",""img/obj7.png""]]","","","3,2,2,1,3,4,3,1,5","143","","","","","","","","","","",""
"vsl-grid-scene-snap","31","87617","0.0-5.0-0.0-26.0","","","[[""img/obj4.png"",0,0],[0,""img/obj11.png"",""img/obj8.png""],[""img/obj2.png"",""img/obj6.png"",""img/obj5.png""]]","","","3,2,1,1,3,3,1,1,6","136","","","","","","","","","","",""
"vsl-grid-scene-snap","32","90625","0.0-5.0-0.0-27.0","","","[[""img/obj8.png"",0,""img/obj10.png""],[""img/obj5.png"",""img/obj3.png"",0],[""img/obj9.png"",""img/obj1.png"",0]]","","","1,1,1,1,3,4,3,1,5","26","","","","","","","","","","",""
"vsl-grid-scene-snap","33","93639","0.0-5.0-0.0-28.0","","","[[""img/obj4.png"",0,""img/obj12.png""],[0,""img/obj11.png"",""img/obj7.png""],[""img/obj2.png"",""img/obj6.png"",0]]","","","3,1,2,1,3,3,1,1,6","101","","","","","","","","","","",""
"vsl-grid-scene-snap","34","96642","0.0-5.0-0.0-29.0","","","[[""img/obj8.png"",""img/obj4.png"",0],[""img/obj5.png"",0,""img/obj11.png""],[0,""img/obj2.png"",""img/obj6.png""]]","","","1,1,1,2,3,3,2,1,6","20","","","","","","","","","","",""
"vsl-grid-scene-snap","35","99657","0.0-5.0-0.0-30.0","","","[[""img/obj12.png"",0,0],[""img/obj7.png"",""img/obj10.png"",0],[""img/obj3.png"",""img/obj2.png"",""img/obj6.png""]]","","","1,1,2,2,3,3,2,2,5","17","","","","","","","","","","",""
"vsl-grid-scene-snap","36","102684","0.0-5.0-0.0-31.0","","","[[""img/obj4.png"",""img/obj2.png"",""img/obj6.png""],[0,""img/obj11.png"",""img/obj12.png""],[0,0,""img/obj7.png""]]","","","3,2,2,2,1,3,1,1,6","129","","","","","","","","","","",""
"vsl-grid-scene-snap","37","105696","0.0-5.0-0.0-32.0","","","[[""img/obj9.png"",""img/obj1.png"",""img/obj10.png""],[0,""img/obj3.png"",""img/obj8.png""],[0,0,""img/obj5.png""]]","","","3,2,1,1,1,4,3,1,5","118","","","","","","","","","","",""
"vsl-grid-scene-snap","38","108716","0.0-5.0-0.0-33.0","","","[[""img/obj12.png"",""img/obj2.png"",""img/obj6.png""],[""img/obj7.png"",""img/obj4.png"",0],[0,0,""img/obj11.png""]]","","","1,1,2,2,1,3,2,2,6","9","","","","","","","","","","",""
"vsl-grid-scene-snap","39","111729","0.0-5.0-0.0-34.0","","","[[""img/obj4.png"",0,""img/obj12.png""],[0,""img/obj11.png"",""img/obj7.png""],[0,""img/obj2.png"",""img/obj6.png""]]","","","3,1,2,2,3,3,1,1,6","93","","","","","","","","","","",""
"vsl-grid-scene-snap","40","114742","0.0-5.0-0.0-35.0","","","[[0,0,""img/obj12.png""],[0,""img/obj4.png"",""img/obj7.png""],[""img/obj9.png"",""img/obj1.png"",""img/obj11.png""]]","","","3,1,2,1,3,4,2,2,6","107","","","","","","","","","","",""
"vsl-grid-scene-snap","41","117753","0.0-5.0-0.0-36.0","","","[[0,""img/obj9.png"",""img/obj1.png""],[""img/obj4.png"",0,""img/obj8.png""],[0,""img/obj11.png"",""img/obj5.png""]]","","","3,2,1,2,1,4,1,2,6","126","","","","","","","","","","",""
"vsl-grid-scene-snap","42","120770","0.0-5.0-0.0-37.0","","","[[""img/obj4.png"",0,0],[""img/obj8.png"",""img/obj11.png"",0],[""img/obj5.png"",""img/obj9.png"",""img/obj1.png""]]","","","1,2,1,2,3,4,1,1,6","58","","","","","","","","","","",""
"vsl-grid-scene-snap","43","123783","0.0-5.0-0.0-38.0","","","[[0,""img/obj9.png"",""img/obj1.png""],[0,""img/obj10.png"",""img/obj8.png""],[""img/obj3.png"",0,""img/obj5.png""]]","","","3,2,1,2,1,4,2,2,5","122","","","","","","","","","","",""
"vsl-grid-scene-snap","44","126796","0.0-5.0-0.0-39.0","","","[[0,0,""img/obj8.png""],[0,""img/obj4.png"",""img/obj5.png""],[""img/obj2.png"",""img/obj6.png"",""img/obj11.png""]]","","","3,1,1,1,3,3,2,2,6","104","","","","","","","","","","",""
"vsl-grid-scene-snap","45","129808","0.0-5.0-0.0-40.0","","","[[""img/obj8.png"",""img/obj4.png"",0],[""img/obj5.png"",0,""img/obj11.png""],[""img/obj2.png"",""img/obj6.png"",0]]","","","1,1,1,1,3,3,2,1,6","28","","","","","","","","","","",""
"vsl-grid-scene-snap","46","132827","0.0-5.0-0.0-41.0","","","[[""img/obj9.png"",""img/obj1.png"",0],[0,""img/obj10.png"",""img/obj12.png""],[""img/obj3.png"",0,""img/obj7.png""]]","","","3,2,2,1,1,4,2,2,5","111","","","","","","","","","","",""
"vsl-grid-scene-snap","47","135840","0.0-5.0-0.0-42.0","","","[[0,0,""img/obj10.png""],[""img/obj8.png"",""img/obj3.png"",0],[""img/obj5.png"",""img/obj9.png"",""img/obj1.png""]]","","","1,2,1,2,3,4,3,1,5","50","","","","","","","","","","",""
"vsl-grid-scene-snap","48","138852","0.0-5.0-0.0-43.0","","","[[""img/obj8.png"",""img/obj2.png"",""img/obj6.png""],[""img/obj5.png"",""img/obj10.png"",0],[""img/obj3.png"",0,0]]","","","1,1,1,2,1,3,2,2,5","4","","","","","","","","","","",""
"vsl-grid-scene-snap","49","141871","0.0-5.0-0.0-44.0","","","[[""img/obj4.png"",0,0],[""img/obj8.png"",""img/obj11.png"",0],[""img/obj5.png"",""img/obj2.png"",""img/obj6.png""]]","","","1,2,1,2,3,3,1,1,6","56","","","","","","","","","","",""
"vsl-grid-scene-snap","50","144886","0.0-5.0-0.0-45.0","","","[[""img/obj9.png"",""img/obj1.png"",0],[0,""img/obj10.png"",""img/obj8.png""],[""img/obj3.png"",0,""img/obj5.png""]]","","","3,2,1,1,1,4,2,2,5","110","","","","","","","","","","",""
"vsl-grid-scene-snap","51","147901","0.0-5.0-0.0-46.0","","","[[""img/obj4.png"",""img/obj9.png"",""img/obj1.png""],[0,""img/obj11.png"",""img/obj12.png""],[0,0,""img/obj7.png""]]","","","3,2,2,2,1,4,1,1,6","131","","","","","","","","","","",""
"vsl-grid-scene-snap","52","150910","0.0-5.0-0.0-47.0","","","[[""img/obj12.png"",""img/obj4.png"",0],[""img/obj7.png"",0,""img/obj11.png""],[""img/obj9.png"",""img/obj1.png"",0]]","","","1,1,2,1,3,4,2,1,6","31","","","","","","","","","","",""
"vsl-grid-attention-check","53","154926","0.0-5.0-1.0-0.0-0.0","","null","[[""img/square.png"",0,""img/square.png""],[""img/square.png"",""img/attention.png"",""img/square.png""],[""img/square.png"",0,0]]","","","","","null","","","","","","","","","",""
"vsl-grid-attention-check","54","157929","0.0-5.0-1.0-0.1-0.1","","null","[[""img/square.png"",0,0],[""img/square.png"",""img/attention.png"",""img/square.png""],[0,""img/square.png"",""img/square.png""]]","","","","","null","","","","","","","","","",""
"vsl-grid-attention-check","55","160937","0.0-5.0-1.0-0.2-0.2","","null","[[""img/square.png"",0,0],[""img/square.png"",""img/attention.png"",""img/square.png""],[""img/square.png"",0,""img/square.png""]]","","","","","null","","","","","","","","","",""
"vsl-grid-attention-check","56","163940","0.0-5.0-1.0-0.3-0.3","","null","[[""img/square.png"",0,""img/square.png""],[""img/square.png"",""img/attention.png"",0],[0,""img/square.png"",""img/square.png""]]","","","","","null","","","","","","","","","",""
"vsl-grid-attention-check","57","164410","0.0-5.0-1.0-0.4-0.4","","468.29999999701977","[[""img/square.png"",0,""img/square.png""],[0,""img/attention.png"",""img/square.png""],[""img/square.png"",0,""img/square.png""]]","","","","","32","","","","","","","","","",""
"html-keyboard-response","58","165411","0.0-5.0-1.0-1.0","","null"," ","","","","","null","","","","","","","","","",""
"vsl-grid-scene-snap","59","167420","0.0-5.0-2.0-0.0","","","[[0,""img/obj2.png"",""img/obj6.png""],[0,""img/obj10.png"",""img/obj12.png""],[""img/obj3.png"",0,""img/obj7.png""]]","","","3,2,2,2,1,3,2,2,5","121","","","","","","","","","","",""
"vsl-grid-scene-snap","60","170438","0.0-5.0-2.0-1.0","","","[[0,""img/obj10.png"",""img/obj12.png""],[""img/obj3.png"",0,""img/obj7.png""],[""img/obj9.png"",""img/obj1.png"",0]]","","","3,1,2,1,3,4,2,1,5","99","","","","","","","","","","",""
"vsl-grid-scene-snap","61","173453","0.0-5.0-2.0-2.0","","","[[""img/obj8.png"",0,""img/obj10.png""],[""img/obj5.png"",""img/obj3.png"",0],[0,""img/obj2.png"",""img/obj6.png""]]","","","1,1,1,2,3,3,3,1,5","12","","","","","","","","","","",""
"vsl-grid-scene-snap","62","176466","0.0-5.0-2.0-3.0","","","[[""img/obj12.png"",0,""img/obj10.png""],[""img/obj7.png"",""img/obj3.png"",0],[0,""img/obj9.png"",""img/obj1.png""]]","","","1,1,2,2,3,4,3,1,5","15","","","","","","","","","","",""
"vsl-grid-scene-snap","63","179483","0.0-5.0-2.0-4.0","","","[[0,""img/obj10.png"",""img/obj8.png""],[""img/obj3.png"",0,""img/obj5.png""],[""img/obj9.png"",""img/obj1.png"",0]]","","","3,1,1,1,3,4,2,1,5","98","","","","","","","","","","",""
"vsl-grid-scene-snap","64","182502","0.0-5.0-2.0-5.0","","","[[""img/obj4.png"",0,0],[""img/obj12.png"",""img/obj11.png"",0],[""img/obj7.png"",""img/obj9.png"",""img/obj1.png""]]","","","1,2,2,2,3,4,1,1,6","59","","","","","","","","","","",""
"vsl-grid-scene-snap","65","185527","0.0-5.0-2.0-6.0","","","[[""img/obj12.png"",0,0],[""img/obj7.png"",""img/obj4.png"",0],[""img/obj9.png"",""img/obj1.png"",""img/obj11.png""]]","","","1,1,2,1,3,4,2,2,6","35","","","","","","","","","","",""
"vsl-grid-scene-snap","66","188535","0.0-5.0-2.0-7.0","","","[[""img/obj4.png"",0,""img/obj8.png""],[0,""img/obj11.png"",""img/obj5.png""],[0,""img/obj9.png"",""img/obj1.png""]]","","","3,1,1,2,3,4,1,1,6","94","","","","","","","","","","",""
"vsl-grid-scene-snap","67","191558","0.0-5.0-2.0-8.0","","","[[0,0,""img/obj8.png""],[0,""img/obj10.png"",""img/obj5.png""],[""img/obj3.png"",""img/obj9.png"",""img/obj1.png""]]","","","3,1,1,2,3,4,2,2,5","86","","","","","","","","","","",""
"vsl-grid-scene-snap","68","194569","0.0-5.0-2.0-9.0","","","[[""img/obj2.png"",""img/obj6.png"",""img/obj8.png""],[0,""img/obj4.png"",""img/obj5.png""],[0,0,""img/obj11.png""]]","","","3,1,1,1,1,3,2,2,6","80","","","","","","","","","","",""
"vsl-grid-scene-snap","69","197586","0.0-5.0-2.0-10.0","","","[[""img/obj9.png"",""img/obj1.png"",0],[""img/obj12.png"",""img/obj4.png"",0],[""img/obj7.png"",0,""img/obj11.png""]]","","","1,2,2,1,1,4,2,2,6","71","","","","","","","","","","",""
"vsl-grid-scene-snap","70","200603","0.0-5.0-2.0-11.0","","","[[0,""img/obj10.png"",0],[""img/obj3.png"",0,""img/obj8.png""],[""img/obj9.png"",""img/obj1.png"",""img/obj5.png""]]","","","3,2,1,1,3,4,2,1,5","134","","","","","","","","","","",""
"vsl-grid-scene-snap","71","203618","0.0-5.0-2.0-12.0","","","[[""img/obj2.png"",""img/obj6.png"",0],[""img/obj4.png"",0,""img/obj12.png""],[0,""img/obj11.png"",""img/obj7.png""]]","","","3,2,2,1,1,3,1,2,6","113","","","","","","","","","","",""
"vsl-grid-scene-snap","72","206629","0.0-5.0-2.0-13.0","","","[[0,0,""img/obj10.png""],[""img/obj12.png"",""img/obj3.png"",0],[""img/obj7.png"",""img/obj9.png"",""img/obj1.png""]]","","","1,2,2,2,3,4,3,1,5","51","","","","","","","","","","",""
"vsl-grid-scene-snap","73","209648","0.0-5.0-2.0-14.0","","","[[""img/obj12.png"",""img/obj2.png"",""img/obj6.png""],[""img/obj7.png"",0,""img/obj10.png""],[0,""img/obj3.png"",0]]","","","1,1,2,2,1,3,3,2,5","1","","","","","","","","","","",""
"vsl-grid-scene-snap","74","212668","0.0-5.0-2.0-15.0","","","[[0,""img/obj10.png"",0],[""img/obj3.png"",0,""img/obj12.png""],[""img/obj9.png"",""img/obj1.png"",""img/obj7.png""]]","","","3,2,2,1,3,4,2,1,5","135","","","","","","","","","","",""
"vsl-grid-scene-snap","75","215685","0.0-5.0-2.0-16.0","","","[[""img/obj2.png"",""img/obj6.png"",0],[""img/obj12.png"",""img/obj4.png"",0],[""img/obj7.png"",0,""img/obj11.png""]]","","","1,2,2,1,1,3,2,2,6","69","","","","","","","","","","",""
"vsl-grid-scene-snap","76","218709","0.0-5.0-2.0-17.0","","","[[""img/obj12.png"",""img/obj9.png"",""img/obj1.png""],[""img/obj7.png"",0,""img/obj10.png""],[0,""img/obj3.png"",0]]","","","1,1,2,2,1,4,3,2,5","3","","","","","","","","","","",""
"vsl-grid-scene-snap","77","221733","0.0-5.0-2.0-18.0","","","[[""img/obj4.png"",0,0],[""img/obj12.png"",""img/obj11.png"",0],[""img/obj7.png"",""img/obj2.png"",""img/obj6.png""]]","","","1,2,2,2,3,3,1,1,6","57","","","","","","","","","","",""
"vsl-grid-scene-snap","78","224741","0.0-5.0-2.0-19.0","","","[[""img/obj9.png"",""img/obj1.png"",""img/obj10.png""],[""img/obj8.png"",""img/obj3.png"",0],[""img/obj5.png"",0,0]]","","","1,2,1,1,1,4,3,1,5","66","","","","","","","","","","",""
"vsl-grid-scene-snap","79","227767","0.0-5.0-2.0-20.0","","","[[0,""img/obj4.png"",0],[""img/obj12.png"",0,""img/obj11.png""],[""img/obj7.png"",""img/obj9.png"",""img/obj1.png""]]","","","1,2,2,2,3,4,2,1,6","55","","","","","","","","","","",""
"vsl-grid-scene-snap","80","230786","0.0-5.0-2.0-21.0","","","[[0,""img/obj10.png"",""img/obj12.png""],[""img/obj3.png"",0,""img/obj7.png""],[0,""img/obj9.png"",""img/obj1.png""]]","","","3,1,2,2,3,4,2,1,5","91","","","","","","","","","","",""
"vsl-grid-scene-snap","81","233810","0.0-5.0-2.0-22.0","","","[[""img/obj9.png"",""img/obj1.png"",0],[""img/obj8.png"",""img/obj4.png"",0],[""img/obj5.png"",0,""img/obj11.png""]]","","","1,2,1,1,1,4,2,2,6","70","","","","","","","","","","",""
"vsl-grid-scene-snap","82","236829","0.0-5.0-2.0-23.0","","","[[""img/obj2.png"",""img/obj6.png"",0],[""img/obj12.png"",0,""img/obj10.png""],[""img/obj7.png"",""img/obj3.png"",0]]","","","1,2,2,1,1,3,3,2,5","61","","","","","","","","","","",""
"vsl-grid-scene-snap","83","239845","0.0-5.0-2.0-24.0","","","[[0,0,""img/obj12.png""],[0,""img/obj4.png"",""img/obj7.png""],[""img/obj2.png"",""img/obj6.png"",""img/obj11.png""]]","","","3,1,2,1,3,3,2,2,6","105","","","","","","","","","","",""
"vsl-grid-scene-snap","84","242854","0.0-5.0-2.0-25.0","","","[[""img/obj8.png"",""img/obj9.png"",""img/obj1.png""],[""img/obj5.png"",""img/obj10.png"",0],[""img/obj3.png"",0,0]]","","","1,1,1,2,1,4,2,2,5","6","","","","","","","","","","",""
"vsl-grid-scene-snap","85","245867","0.0-5.0-2.0-26.0","","","[[""img/obj4.png"",""img/obj9.png"",""img/obj1.png""],[""img/obj8.png"",""img/obj11.png"",0],[""img/obj5.png"",0,0]]","","","1,2,1,2,1,4,1,1,6","42","","","","","","","","","","",""
"vsl-grid-scene-snap","86","248889","0.0-5.0-2.0-27.0","","","[[0,""img/obj10.png"",""img/obj12.png""],[""img/obj3.png"",0,""img/obj7.png""],[0,""img/obj2.png"",""img/obj6.png""]]","","","3,1,2,2,3,3,2,1,5","89","","","","","","","","","","",""
"vsl-grid-scene-snap","87","251906","0.0-5.0-2.0-28.0","","","[[""img/obj4.png"",""img/obj2.png"",""img/obj6.png""],[0,""img/obj11.png"",""img/obj8.png""],[0,0,""img/obj5.png""]]","","","3,2,1,2,1,3,1,1,6","128","","","","","","","","","","",""
"vsl-grid-scene-snap","88","254927","0.0-5.0-2.0-29.0","","","[[""img/obj8.png"",0,0],[""img/obj5.png"",""img/obj10.png"",0],[""img/obj3.png"",""img/obj2.png"",""img/obj6.png""]]","","","1,1,1,2,3,3,2,2,5","16","","","","","","","","","","",""
"vsl-grid-scene-snap","89","257948","0.0-5.0-2.0-30.0","","","[[""img/obj8.png"",0,0],[""img/obj5.png"",""img/obj10.png"",0],[""img/obj3.png"",""img/obj9.png"",""img/obj1.png""]]","","","1,1,1,2,3,4,2,2,5","18","","","","","","","","","","",""
"vsl-grid-scene-snap","90","260960","0.0-5.0-2.0-31.0","","","[[""img/obj2.png"",""img/obj6.png"",0],[0,""img/obj10.png"",""img/obj8.png""],[""img/obj3.png"",0,""img/obj5.png""]]","","","3,2,1,1,1,3,2,2,5","108","","","","","","","","","","",""
"vsl-grid-scene-snap","91","263977","0.0-5.0-2.0-32.0","","","[[""img/obj4.png"",0,""img/obj8.png""],[0,""img/obj11.png"",""img/obj5.png""],[""img/obj9.png"",""img/obj1.png"",0]]","","","3,1,1,1,3,4,1,1,6","102","","","","","","","","","","",""
"vsl-grid-scene-snap","92","267001","0.0-5.0-2.0-33.0","","","[[0,""img/obj10.png"",""img/obj8.png""],[""img/obj3.png"",0,""img/obj5.png""],[0,""img/obj9.png"",""img/obj1.png""]]","","","3,1,1,2,3,4,2,1,5","90","","","","","","","","","","",""
"vsl-grid-scene-snap","93","270023","0.0-5.0-2.0-34.0","","","[[""img/obj12.png"",0,0],[""img/obj7.png"",""img/obj10.png"",0],[""img/obj3.png"",""img/obj9.png"",""img/obj1.png""]]","","","1,1,2,2,3,4,2,2,5","19","","","","","","","","","","",""
"vsl-grid-scene-snap","94","273025","0.0-5.0-2.0-35.0","","","[[""img/obj2.png"",""img/obj6.png"",""img/obj10.png""],[0,""img/obj3.png"",""img/obj8.png""],[0,0,""img/obj5.png""]]","","","3,2,1,1,1,3,3,1,5","116","","","","","","","","","","",""
"vsl-grid-scene-snap","95","276032","0.0-5.0-2.0-36.0","","","[[""img/obj2.png"",""img/obj6.png"",""img/obj12.png""],[0,""img/obj10.png"",""img/obj7.png""],[""img/obj3.png"",0,0]]","","","3,1,2,1,1,3,2,2,5","73","","","","","","","","","","",""
"vsl-grid-scene-snap","96","279034","0.0-5.0-2.0-37.0","","","[[0,""img/obj9.png"",""img/obj1.png""],[0,""img/obj10.png"",""img/obj12.png""],[""img/obj3.png"",0,""img/obj7.png""]]","","","3,2,2,2,1,4,2,2,5","123","","","","","","","","","","",""
"vsl-grid-scene-snap","97","282058","0.0-5.0-2.0-38.0","","","[[0,""img/obj10.png"",0],[""img/obj3.png"",0,""img/obj8.png""],[""img/obj2.png"",""img/obj6.png"",""img/obj5.png""]]","","","3,2,1,1,3,3,2,1,5","132","","","","","","","","","","",""
"vsl-grid-scene-snap","98","285065","0.0-5.0-2.0-39.0","","","[[0,0,""img/obj12.png""],[0,""img/obj10.png"",""img/obj7.png""],[""img/obj3.png"",""img/obj9.png"",""img/obj1.png""]]","","","3,1,2,2,3,4,2,2,5","87","","","","","","","","","","",""
"vsl-grid-scene-snap","99","288070","0.0-5.0-2.0-40.0","","","[[""img/obj9.png"",""img/obj1.png"",""img/obj8.png""],[""img/obj4.png"",0,""img/obj5.png""],[0,""img/obj11.png"",0]]","","","3,1,1,1,1,4,1,2,6","78","","","","","","","","","","",""
"vsl-grid-scene-snap","100","291083","0.0-5.0-2.0-41.0","","","[[""img/obj12.png"",0,""img/obj10.png""],[""img/obj7.png"",""img/obj3.png"",0],[""img/obj9.png"",""img/obj1.png"",0]]","","","1,1,2,1,3,4,3,1,5","27","","","","","","","","","","",""
"vsl-grid-scene-snap","101","294092","0.0-5.0-2.0-42.0","","","[[""img/obj12.png"",""img/obj4.png"",0],[""img/obj7.png"",0,""img/obj11.png""],[0,""img/obj2.png"",""img/obj6.png""]]","","","1,1,2,2,3,3,2,1,6","21","","","","","","","","","","",""
"vsl-grid-scene-snap","102","297108","0.0-5.0-2.0-43.0","","","[[""img/obj12.png"",""img/obj4.png"",0],[""img/obj7.png"",0,""img/obj11.png""],[0,""img/obj9.png"",""img/obj1.png""]]","","","1,1,2,2,3,4,2,1,6","23","","","","","","","","","","",""
"vsl-grid-scene-snap","103","300129","0.0-5.0-2.0-44.0","","","[[0,""img/obj2.png"",""img/obj6.png""],[""img/obj4.png"",0,""img/obj8.png""],[0,""img/obj11.png"",""img/obj5.png""]]","","","3,2,1,2,1,3,1,2,6","124","","","","","","","","","","",""
"vsl-grid-scene-snap","104","303142","0.0-5.0-2.0-45.0","","","[[0,""img/obj4.png"",0],[""img/obj8.png"",0,""img/obj11.png""],[""img/obj5.png"",""img/obj2.png"",""img/obj6.png""]]","","","1,2,1,2,3,3,2,1,6","52","","","","","","","","","","",""
"vsl-grid-scene-snap","105","306169","0.0-5.0-2.0-46.0","","","[[""img/obj2.png"",""img/obj6.png"",""img/obj10.png""],[""img/obj8.png"",""img/obj3.png"",0],[""img/obj5.png"",0,0]]","","","1,2,1,1,1,3,3,1,5","64","","","","","","","","","","",""
"vsl-grid-scene-snap","106","309189","0.0-5.0-2.0-47.0","","","[[""img/obj2.png"",""img/obj6.png"",""img/obj8.png""],[""img/obj4.png"",0,""img/obj5.png""],[0,""img/obj11.png"",0]]","","","3,1,1,1,1,3,1,2,6","76","","","","","","","","","","",""
"vsl-grid-attention-check","107","313202","0.0-5.0-3.0-0.0-0.0","","null","[[""img/square.png"",""img/square.png"",""img/square.png""],[0,""img/attention.png"",""img/square.png""],[0,0,""img/square.png""]]","","","","","null","","","","","","","","","",""
"vsl-grid-attention-check","108","315710","0.0-5.0-3.0-0.1-0.1","","2507.4000000059605","[[""img/square.png"",""img/square.png"",0],[""img/square.png"",""img/attention.png"",0],[""img/square.png"",""img/square.png"",0]]","","","","","32","","","","","","","","","",""
"html-keyboard-response","109","316713","0.0-5.0-3.0-1.0","","null"," ","","","","","null","","","","","","","","","",""
"vsl-grid-scene-snap","110","318720","0.0-5.0-4.0-0.0","","","[[""img/obj9.png"",""img/obj1.png"",""img/obj8.png""],[0,""img/obj4.png"",""img/obj5.png""],[0,0,""img/obj11.png""]]","","","3,1,1,1,1,4,2,2,6","82","","","","","","","","","","",""
"vsl-grid-scene-snap","111","321736","0.0-5.0-4.0-1.0","","","[[""img/obj4.png"",0,0],[0,""img/obj11.png"",""img/obj8.png""],[""img/obj9.png"",""img/obj1.png"",""img/obj5.png""]]","","","3,2,1,1,3,4,1,1,6","138","","","","","","","","","","",""
"vsl-grid-scene-snap","112","324758","0.0-5.0-4.0-2.0","","","[[""img/obj9.png"",""img/obj1.png"",""img/obj10.png""],[""img/obj12.png"",""img/obj3.png"",0],[""img/obj7.png"",0,0]]","","","1,2,2,1,1,4,3,1,5","67","","","","","","","","","","",""
"vsl-grid-scene-snap","113","327766","0.0-5.0-4.0-3.0","","","[[""img/obj12.png"",0,""img/obj10.png""],[""img/obj7.png"",""img/obj3.png"",0],[""img/obj2.png"",""img/obj6.png"",0]]","","","1,1,2,1,3,3,3,1,5","25","","","","","","","","","","",""
"vsl-grid-scene-snap","114","330784","0.0-5.0-4.0-4.0","","","[[0,""img/obj9.png"",""img/obj1.png""],[""img/obj8.png"",""img/obj4.png"",0],[""img/obj5.png"",0,""img/obj11.png""]]","","","1,2,1,2,1,4,2,2,6","46","","","","","","","","","","",""
"vsl-grid-scene-snap","115","333797","0.0-5.0-4.0-5.0","","","[[""img/obj4.png"",0,0],[0,""img/obj11.png"",""img/obj12.png""],[""img/obj2.png"",""img/obj6.png"",""img/obj7.png""]]","","","3,2,2,1,3,3,1,1,6","137","","","","","","","","","","",""
"vsl-grid-scene-snap","116","336804","0.0-5.0-4.0-6.0","","","[[""img/obj9.png"",""img/obj1.png"",""img/obj12.png""],[0,""img/obj10.png"",""img/obj7.png""],[""img/obj3.png"",0,0]]","","","3,1,2,1,1,4,2,2,5","75","","","","","","","","","","",""
"vsl-grid-scene-snap","117","339832","0.0-5.0-4.0-7.0","","","[[0,0,""img/obj10.png""],[""img/obj12.png"",""img/obj3.png"",0],[""img/obj7.png"",""img/obj2.png"",""img/obj6.png""]]","","","1,2,2,2,3,3,3,1,5","49","","","","","","","","","","",""
"vsl-grid-scene-snap","118","342856","0.0-5.0-4.0-8.0","","","[[""img/obj8.png"",""img/obj4.png"",0],[""img/obj5.png"",0,""img/obj11.png""],[0,""img/obj9.png"",""img/obj1.png""]]","","","1,1,1,2,3,4,2,1,6","22","","","","","","","","","","",""
"vsl-grid-scene-snap","119","345878","0.0-5.0-4.0-9.0","","","[[0,""img/obj4.png"",0],[""img/obj8.png"",0,""img/obj11.png""],[""img/obj5.png"",""img/obj9.png"",""img/obj1.png""]]","","","1,2,1,2,3,4,2,1,6","54","","","","","","","","","","",""
"vsl-grid-scene-snap","120","348887","0.0-5.0-4.0-10.0","","","[[""img/obj8.png"",0,""img/obj10.png""],[""img/obj5.png"",""img/obj3.png"",0],[""img/obj2.png"",""img/obj6.png"",0]]","","","1,1,1,1,3,3,3,1,5","24","","","","","","","","","","",""
"vsl-grid-scene-snap","121","351913","0.0-5.0-4.0-11.0","","","[[0,""img/obj9.png"",""img/obj1.png""],[""img/obj4.png"",0,""img/obj12.png""],[0,""img/obj11.png"",""img/obj7.png""]]","","","3,2,2,2,1,4,1,2,6","127","","","","","","","","","","",""
"vsl-grid-scene-snap","122","354932","0.0-5.0-4.0-12.0","","","[[""img/obj2.png"",""img/obj6.png"",""img/obj12.png""],[""img/obj4.png"",0,""img/obj7.png""],[0,""img/obj11.png"",0]]","","","3,1,2,1,1,3,1,2,6","77","","","","","","","","","","",""
"vsl-grid-scene-snap","123","357940","0.0-5.0-4.0-13.0","","","[[""img/obj9.png"",""img/obj1.png"",""img/obj10.png""],[0,""img/obj3.png"",""img/obj12.png""],[0,0,""img/obj7.png""]]","","","3,2,2,1,1,4,3,1,5","119","","","","","","","","","","",""
"vsl-grid-scene-snap","124","360947","0.0-5.0-4.0-14.0","","","[[""img/obj9.png"",""img/obj1.png"",""img/obj12.png""],[""img/obj4.png"",0,""img/obj7.png""],[0,""img/obj11.png"",0]]","","","3,1,2,1,1,4,1,2,6","79","","","","","","","","","","",""
"vsl-grid-scene-snap","125","363954","0.0-5.0-4.0-15.0","","","[[""img/obj9.png"",""img/obj1.png"",""img/obj12.png""],[0,""img/obj4.png"",""img/obj7.png""],[0,0,""img/obj11.png""]]","","","3,1,2,1,1,4,2,2,6","83","","","","","","","","","","",""
"vsl-grid-scene-snap","126","366975","0.0-5.0-4.0-16.0","","","[[0,0,""img/obj10.png""],[""img/obj8.png"",""img/obj3.png"",0],[""img/obj5.png"",""img/obj2.png"",""img/obj6.png""]]","","","1,2,1,2,3,3,3,1,5","48","","","","","","","","","","",""
"vsl-grid-scene-snap","127","369991","0.0-5.0-4.0-17.0","","","[[0,""img/obj2.png"",""img/obj6.png""],[""img/obj12.png"",""img/obj4.png"",0],[""img/obj7.png"",0,""img/obj11.png""]]","","","1,2,2,2,1,3,2,2,6","45","","","","","","","","","","",""
"vsl-grid-scene-snap","128","373000","0.0-5.0-4.0-18.0","","","[[""img/obj8.png"",""img/obj4.png"",0],[""img/obj5.png"",0,""img/obj11.png""],[""img/obj9.png"",""img/obj1.png"",0]]","","","1,1,1,1,3,4,2,1,6","30","","","","","","","","","","",""
"vsl-grid-scene-snap","129","376023","0.0-5.0-4.0-19.0","","","[[""img/obj8.png"",0,""img/obj10.png""],[""img/obj5.png"",""img/obj3.png"",0],[0,""img/obj9.png"",""img/obj1.png""]]","","","1,1,1,2,3,4,3,1,5","14","","","","","","","","","","",""
"vsl-grid-scene-snap","130","379042","0.0-5.0-4.0-20.0","","","[[""img/obj12.png"",0,0],[""img/obj7.png"",""img/obj4.png"",0],[""img/obj2.png"",""img/obj6.png"",""img/obj11.png""]]","","","1,1,2,1,3,3,2,2,6","33","","","","","","","","","","",""
"vsl-grid-scene-snap","131","382058","0.0-5.0-4.0-21.0","","","[[""img/obj12.png"",""img/obj4.png"",0],[""img/obj7.png"",0,""img/obj11.png""],[""img/obj2.png"",""img/obj6.png"",0]]","","","1,1,2,1,3,3,2,1,6","29","","","","","","","","","","",""
"vsl-grid-scene-snap","132","385063","0.0-5.0-4.0-22.0","","","[[""img/obj9.png"",""img/obj1.png"",0],[""img/obj12.png"",0,""img/obj10.png""],[""img/obj7.png"",""img/obj3.png"",0]]","","","1,2,2,1,1,4,3,2,5","63","","","","","","","","","","",""
"vsl-grid-scene-snap","133","388083","0.0-5.0-4.0-23.0","","","[[""img/obj4.png"",""img/obj2.png"",""img/obj6.png""],[""img/obj12.png"",""img/obj11.png"",0],[""img/obj7.png"",0,0]]","","","1,2,2,2,1,3,1,1,6","41","","","","","","","","","","",""
"vsl-grid-scene-snap","134","391100","0.0-5.0-4.0-24.0","","","[[""img/obj2.png"",""img/obj6.png"",""img/obj12.png""],[0,""img/obj4.png"",""img/obj7.png""],[0,0,""img/obj11.png""]]","","","3,1,2,1,1,3,2,2,6","81","","","","","","","","","","",""
"vsl-grid-scene-snap","135","394123","0.0-5.0-4.0-25.0","","","[[""img/obj2.png"",""img/obj6.png"",0],[""img/obj4.png"",0,""img/obj8.png""],[0,""img/obj11.png"",""img/obj5.png""]]","","","3,2,1,1,1,3,1,2,6","112","","","","","","","","","","",""
"vsl-grid-scene-snap","136","397135","0.0-5.0-4.0-26.0","","","[[""img/obj4.png"",0,0],[0,""img/obj11.png"",""img/obj12.png""],[""img/obj9.png"",""img/obj1.png"",""img/obj7.png""]]","","","3,2,2,1,3,4,1,1,6","139","","","","","","","","","","",""
"vsl-grid-scene-snap","137","400154","0.0-5.0-4.0-27.0","","","[[""img/obj9.png"",""img/obj1.png"",0],[""img/obj8.png"",0,""img/obj10.png""],[""img/obj5.png"",""img/obj3.png"",0]]","","","1,2,1,1,1,4,3,2,5","62","","","","","","","","","","",""
"vsl-grid-scene-snap","138","403165","0.0-5.0-4.0-28.0","","","[[0,""img/obj2.png"",""img/obj6.png""],[""img/obj8.png"",0,""img/obj10.png""],[""img/obj5.png"",""img/obj3.png"",0]]","","","1,2,1,2,1,3,3,2,5","36","","","","","","","","","","",""
"vsl-grid-scene-snap","139","406167","0.0-5.0-4.0-29.0","","","[[""img/obj4.png"",0,""img/obj12.png""],[0,""img/obj11.png"",""img/obj7.png""],[0,""img/obj9.png"",""img/obj1.png""]]","","","3,1,2,2,3,4,1,1,6","95","","","","","","","","","","",""
"vsl-grid-scene-snap","140","409179","0.0-5.0-4.0-30.0","","","[[""img/obj4.png"",""img/obj2.png"",""img/obj6.png""],[""img/obj8.png"",""img/obj11.png"",0],[""img/obj5.png"",0,0]]","","","1,2,1,2,1,3,1,1,6","40","","","","","","","","","","",""
"vsl-grid-scene-snap","141","412193","0.0-5.0-4.0-31.0","","","[[0,""img/obj10.png"",""img/obj8.png""],[""img/obj3.png"",0,""img/obj5.png""],[""img/obj2.png"",""img/obj6.png"",0]]","","","3,1,1,1,3,3,2,1,5","96","","","","","","","","","","",""
"vsl-grid-scene-snap","142","415210","0.0-5.0-4.0-32.0","","","[[0,""img/obj10.png"",""img/obj12.png""],[""img/obj3.png"",0,""img/obj7.png""],[""img/obj2.png"",""img/obj6.png"",0]]","","","3,1,2,1,3,3,2,1,5","97","","","","","","","","","","",""
"vsl-grid-scene-snap","143","418235","0.0-5.0-4.0-33.0","","","[[""img/obj4.png"",0,""img/obj12.png""],[0,""img/obj11.png"",""img/obj7.png""],[""img/obj9.png"",""img/obj1.png"",0]]","","","3,1,2,1,3,4,1,1,6","103","","","","","","","","","","",""
"vsl-grid-scene-snap","144","421247","0.0-5.0-4.0-34.0","","","[[""img/obj2.png"",""img/obj6.png"",0],[""img/obj8.png"",0,""img/obj10.png""],[""img/obj5.png"",""img/obj3.png"",0]]","","","1,2,1,1,1,3,3,2,5","60","","","","","","","","","","",""
"vsl-grid-scene-snap","145","424268","0.0-5.0-4.0-35.0","","","[[0,""img/obj4.png"",0],[""img/obj12.png"",0,""img/obj11.png""],[""img/obj7.png"",""img/obj2.png"",""img/obj6.png""]]","","","1,2,2,2,3,3,2,1,6","53","","","","","","","","","","",""
"vsl-grid-scene-snap","146","427289","0.0-5.0-4.0-36.0","","","[[""img/obj2.png"",""img/obj6.png"",""img/obj8.png""],[0,""img/obj10.png"",""img/obj5.png""],[""img/obj3.png"",0,0]]","","","3,1,1,1,1,3,2,2,5","72","","","","","","","","","","",""
"vsl-grid-scene-snap","147","430308","0.0-5.0-4.0-37.0","","","[[0,""img/obj10.png"",0],[""img/obj3.png"",0,""img/obj12.png""],[""img/obj2.png"",""img/obj6.png"",""img/obj7.png""]]","","","3,2,2,1,3,3,2,1,5","133","","","","","","","","","","",""
"vsl-grid-scene-snap","148","433332","0.0-5.0-4.0-38.0","","","[[""img/obj12.png"",""img/obj9.png"",""img/obj1.png""],[""img/obj7.png"",""img/obj10.png"",0],[""img/obj3.png"",0,0]]","","","1,1,2,2,1,4,2,2,5","7","","","","","","","","","","",""
"vsl-grid-scene-snap","149","436340","0.0-5.0-4.0-39.0","","","[[""img/obj8.png"",0,0],[""img/obj5.png"",""img/obj4.png"",0],[""img/obj2.png"",""img/obj6.png"",""img/obj11.png""]]","","","1,1,1,1,3,3,2,2,6","32","","","","","","","","","","",""
"vsl-grid-scene-snap","150","439347","0.0-5.0-4.0-40.0","","","[[0,0,""img/obj10.png""],[0,""img/obj3.png"",""img/obj8.png""],[""img/obj2.png"",""img/obj6.png"",""img/obj5.png""]]","","","3,2,1,1,3,3,3,1,5","140","","","","","","","","","","",""
"vsl-grid-scene-snap","151","442366","0.0-5.0-4.0-41.0","","","[[0,""img/obj9.png"",""img/obj1.png""],[""img/obj8.png"",0,""img/obj10.png""],[""img/obj5.png"",""img/obj3.png"",0]]","","","1,2,1,2,1,4,3,2,5","38","","","","","","","","","","",""
"vsl-grid-scene-snap","152","445383","0.0-5.0-4.0-42.0","","","[[""img/obj8.png"",0,0],[""img/obj5.png"",""img/obj4.png"",0],[""img/obj9.png"",""img/obj1.png"",""img/obj11.png""]]","","","1,1,1,1,3,4,2,2,6","34","","","","","","","","","","",""
"vsl-grid-scene-snap","153","448407","0.0-5.0-4.0-43.0","","","[[0,""img/obj2.png"",""img/obj6.png""],[""img/obj8.png"",""img/obj4.png"",0],[""img/obj5.png"",0,""img/obj11.png""]]","","","1,2,1,2,1,3,2,2,6","44","","","","","","","","","","",""
"vsl-grid-scene-snap","154","451415","0.0-5.0-4.0-44.0","","","[[""img/obj8.png"",""img/obj2.png"",""img/obj6.png""],[""img/obj5.png"",0,""img/obj10.png""],[0,""img/obj3.png"",0]]","","","1,1,1,2,1,3,3,2,5","0","","","","","","","","","","",""
"vsl-grid-scene-snap","155","454439","0.0-5.0-4.0-45.0","","","[[0,""img/obj10.png"",""img/obj8.png""],[""img/obj3.png"",0,""img/obj5.png""],[0,""img/obj2.png"",""img/obj6.png""]]","","","3,1,1,2,3,3,2,1,5","88","","","","","","","","","","",""
"vsl-grid-scene-snap","156","457452","0.0-5.0-4.0-46.0","","","[[0,0,""img/obj10.png""],[0,""img/obj3.png"",""img/obj12.png""],[""img/obj2.png"",""img/obj6.png"",""img/obj7.png""]]","","","3,2,2,1,3,3,3,1,5","141","","","","","","","","","","",""
"vsl-grid-scene-snap","157","460479","0.0-5.0-4.0-47.0","","","[[0,""img/obj2.png"",""img/obj6.png""],[""img/obj4.png"",0,""img/obj12.png""],[0,""img/obj11.png"",""img/obj7.png""]]","","","3,2,2,2,1,3,1,2,6","125","","","","","","","","","","",""
"vsl-grid-attention-check","158","464490","0.0-5.0-5.0-0.0-0.0","","null","[[""img/square.png"",0,""img/square.png""],[""img/square.png"",""img/attention.png"",0],[""img/square.png"",""img/square.png"",0]]","","","","","null","","","","","","","","","",""
"vsl-grid-attention-check","159","467507","0.0-5.0-5.0-0.1-0.1","","null","[[""img/square.png"",0,""img/square.png""],[""img/square.png"",""img/attention.png"",0],[""img/square.png"",""img/square.png"",0]]","","","","","null","","","","","","","","","",""
"vsl-grid-attention-check","160","470510","0.0-5.0-5.0-0.2-0.2","","null","[[0,""img/square.png"",0],[""img/square.png"",""img/attention.png"",0],[""img/square.png"",""img/square.png"",""img/square.png""]]","","","","","null","","","","","","","","","",""
"vsl-grid-attention-check","161","473512","0.0-5.0-5.0-0.3-0.3","","null","[[0,""img/square.png"",""img/square.png""],[""img/square.png"",""img/attention.png"",""img/square.png""],[""img/square.png"",0,0]]","","","","","null","","","","","","","","","",""
"vsl-grid-attention-check","162","476514","0.0-5.0-5.0-0.4-0.4","","null","[[0,""img/square.png"",0],[""img/square.png"",""img/attention.png"",""img/square.png""],[0,""img/square.png"",""img/square.png""]]","","","","","null","","","","","","","","","",""
"vsl-grid-attention-check","163","479517","0.0-5.0-5.0-0.5-0.5","","null","[[""img/square.png"",""img/square.png"",0],[""img/square.png"",""img/attention.png"",""img/square.png""],[""img/square.png"",0,0]]","","","","","null","","","","","","","","","",""
"vsl-grid-attention-check","164","482523","0.0-5.0-5.0-0.6-0.6","","null","[[""img/square.png"",""img/square.png"",0],[""img/square.png"",""img/attention.png"",0],[0,""img/square.png"",""img/square.png""]]","","","","","null","","","","","","","","","",""
"vsl-grid-attention-check","165","485529","0.0-5.0-5.0-0.7-0.7","","null","[[""img/square.png"",""img/square.png"",""img/square.png""],[0,""img/attention.png"",""img/square.png""],[0,""img/square.png"",0]]","","","","","null","","","","","","","","","",""
"vsl-grid-attention-check","166","488540","0.0-5.0-5.0-0.8-0.8","","null","[[""img/square.png"",""img/square.png"",0],[0,""img/attention.png"",0],[""img/square.png"",""img/square.png"",""img/square.png""]]","","","","","null","","","","","","","","","",""
"vsl-grid-attention-check","167","491549","0.0-5.0-5.0-0.9-0.9","","null","[[""img/square.png"",0,0],[""img/square.png"",""img/attention.png"",""img/square.png""],[""img/square.png"",0,""img/square.png""]]","","","","","null","","","","","","","","","",""
"vsl-grid-attention-check","168","494567","0.0-5.0-5.0-0.10-0.10","","null","[[0,""img/square.png"",""img/square.png""],[""img/square.png"",""img/attention.png"",""img/square.png""],[""img/square.png"",0,0]]","","","","","null","","","","","","","","","",""
"vsl-grid-attention-check","169","497570","0.0-5.0-5.0-0.11-0.11","","null","[[""img/square.png"",""img/square.png"",""img/square.png""],[0,""img/attention.png"",""img/square.png""],[0,""img/square.png"",0]]","","","","","null","","","","","","","","","",""
"vsl-grid-attention-check","170","500585","0.0-5.0-5.0-0.12-0.12","","null","[[0,""img/square.png"",0],[0,""img/attention.png"",""img/square.png""],[""img/square.png"",""img/square.png"",""img/square.png""]]","","","","","null","","","","","","","","","",""
"vsl-grid-attention-check","171","503587","0.0-5.0-5.0-0.13-0.13","","null","[[0,0,""img/square.png""],[""img/square.png"",""img/attention.png"",""img/square.png""],[0,""img/square.png"",""img/square.png""]]","","","","","null","","","","","","","","","",""
"vsl-grid-attention-check","172","506591","0.0-5.0-5.0-0.14-0.14","","null","[[""img/square.png"",""img/square.png"",0],[""img/square.png"",""img/attention.png"",""img/square.png""],[0,""img/square.png"",0]]","","","","","null","","","","","","","","","",""
"vsl-grid-attention-check","173","509600","0.0-5.0-5.0-0.15-0.15","","null","[[""img/square.png"",""img/square.png"",0],[""img/square.png"",""img/attention.png"",0],[0,""img/square.png"",""img/square.png""]]","","","","","null","","","","","","","","","",""
"vsl-grid-attention-check","174","512607","0.0-5.0-5.0-0.16-0.16","","null","[[0,""img/square.png"",0],[""img/square.png"",""img/attention.png"",""img/square.png""],[""img/square.png"",""img/square.png"",0]]","","","","","null","","","","","","","","","",""
"vsl-grid-attention-check","175","515614","0.0-5.0-5.0-0.17-0.17","","null","[[0,0,""img/square.png""],[""img/square.png"",""img/attention.png"",""img/square.png""],[0,""img/square.png"",""img/square.png""]]","","","","","null","","","","","","","","","",""
"vsl-grid-attention-check","176","518627","0.0-5.0-5.0-0.18-0.18","","null","[[0,0,""img/square.png""],[""img/square.png"",""img/attention.png"",""img/square.png""],[0,""img/square.png"",""img/square.png""]]","","","","","null","","","","","","","","","",""
"vsl-grid-attention-check","177","521629","0.0-5.0-5.0-0.19-0.19","","null","[[0,""img/square.png"",""img/square.png""],[0,""img/attention.png"",""img/square.png""],[0,""img/square.png"",""img/square.png""]]","","","","","null","","","","","","","","","",""
"vsl-grid-attention-check","178","524643","0.0-5.0-5.0-0.20-0.20","","null","[[""img/square.png"",0,""img/square.png""],[0,""img/attention.png"",0],[""img/square.png"",""img/square.png"",""img/square.png""]]","","","","","null","","","","","","","","","",""
"vsl-grid-attention-check","179","527659","0.0-5.0-5.0-0.21-0.21","","null","[[""img/square.png"",""img/square.png"",0],[""img/square.png"",""img/attention.png"",""img/square.png""],[0,""img/square.png"",0]]","","","","","null","","","","","","","","","",""
"vsl-grid-attention-check","180","530672","0.0-5.0-5.0-0.22-0.22","","null","[[""img/square.png"",0,""img/square.png""],[0,""img/attention.png"",0],[""img/square.png"",""img/square.png"",""img/square.png""]]","","","","","null","","","","","","","","","",""
"vsl-grid-attention-check","181","533688","0.0-5.0-5.0-0.23-0.23","","null","[[0,""img/square.png"",""img/square.png""],[0,""img/attention.png"",""img/square.png""],[""img/square.png"",""img/square.png"",0]]","","","","","null","","","","","","","","","",""
"vsl-grid-attention-check","182","536692","0.0-5.0-5.0-0.24-0.24","","null","[[""img/square.png"",""img/square.png"",""img/square.png""],[0,""img/attention.png"",0],[""img/square.png"",""img/square.png"",0]]","","","","","null","","","","","","","","","",""
"vsl-grid-attention-check","183","539707","0.0-5.0-5.0-0.25-0.25","","null","[[""img/square.png"",0,""img/square.png""],[0,""img/attention.png"",""img/square.png""],[""img/square.png"",0,""img/square.png""]]","","","","","null","","","","","","","","","",""
"vsl-grid-attention-check","184","542709","0.0-5.0-5.0-0.26-0.26","","null","[[""img/square.png"",""img/square.png"",""img/square.png""],[""img/square.png"",""img/attention.png"",0],[""img/square.png"",0,0]]","","","","","null","","","","","","","","","",""
"vsl-grid-attention-check","185","545715","0.0-5.0-5.0-0.27-0.27","","null","[[""img/square.png"",0,""img/square.png""],[0,""img/attention.png"",0],[""img/square.png"",""img/square.png"",""img/square.png""]]","","","","","null","","","","","","","","","",""
"vsl-grid-attention-check","186","548719","0.0-5.0-5.0-0.28-0.28","","null","[[""img/square.png"",""img/square.png"",""img/square.png""],[""img/square.png"",""img/attention.png"",0],[0,0,""img/square.png""]]","","","","","null","","","","","","","","","",""
"vsl-grid-attention-check","187","551722","0.0-5.0-5.0-0.29-0.29","","null","[[""img/square.png"",0,0],[""img/square.png"",""img/attention.png"",""img/square.png""],[""img/square.png"",""img/square.png"",0]]","","","","","null","","","","","","","","","",""
"vsl-grid-attention-check","188","554738","0.0-5.0-5.0-0.30-0.30","","null","[[0,""img/square.png"",""img/square.png""],[""img/square.png"",""img/attention.png"",0],[0,""img/square.png"",""img/square.png""]]","","","","","null","","","","","","","","","",""
"vsl-grid-attention-check","189","557749","0.0-5.0-5.0-0.31-0.31","","null","[[""img/square.png"",""img/square.png"",0],[""img/square.png"",""img/attention.png"",""img/square.png""],[""img/square.png"",0,0]]","","","","","null","","","","","","","","","",""
"vsl-grid-attention-check","190","560763","0.0-5.0-5.0-0.32-0.32","","null","[[""img/square.png"",""img/square.png"",""img/square.png""],[0,""img/attention.png"",""img/square.png""],[0,""img/square.png"",0]]","","","","","null","","","","","","","","","",""
"vsl-grid-attention-check","191","563775","0.0-5.0-5.0-0.33-0.33","","null","[[0,""img/square.png"",""img/square.png""],[""img/square.png"",""img/attention.png"",""img/square.png""],[0,""img/square.png"",0]]","","","","","null","","","","","","","","","",""
"vsl-grid-attention-check","192","566780","0.0-5.0-5.0-0.34-0.34","","null","[[""img/square.png"",0,0],[0,""img/attention.png"",""img/square.png""],[""img/square.png"",""img/square.png"",""img/square.png""]]","","","","","null","","","","","","","","","",""
"vsl-grid-attention-check","193","569795","0.0-5.0-5.0-0.35-0.35","","null","[[0,0,""img/square.png""],[""img/square.png"",""img/attention.png"",""img/square.png""],[""img/square.png"",""img/square.png"",0]]","","","","","null","","","","","","","","","",""
"vsl-grid-attention-check","194","572799","0.0-5.0-5.0-0.36-0.36","","null","[[""img/square.png"",""img/square.png"",0],[""img/square.png"",""img/attention.png"",0],[""img/square.png"",0,""img/square.png""]]","","","","","null","","","","","","","","","",""
"vsl-grid-attention-check","195","575801","0.0-5.0-5.0-0.37-0.37","","null","[[0,""img/square.png"",""img/square.png""],[""img/square.png"",""img/attention.png"",0],[""img/square.png"",0,""img/square.png""]]","","","","","null","","","","","","","","","",""
"vsl-grid-attention-check","196","578816","0.0-5.0-5.0-0.38-0.38","","null","[[0,""img/square.png"",""img/square.png""],[""img/square.png"",""img/attention.png"",""img/square.png""],[""img/square.png"",0,0]]","","","","","null","","","","","","","","","",""
"vsl-grid-attention-check","197","581819","0.0-5.0-5.0-0.39-0.39","","null","[[0,""img/square.png"",""img/square.png""],[""img/square.png"",""img/attention.png"",0],[""img/square.png"",0,""img/square.png""]]","","","","","null","","","","","","","","","",""
"vsl-grid-attention-check","198","584832","0.0-5.0-5.0-0.40-0.40","","null","[[""img/square.png"",""img/square.png"",""img/square.png""],[0,""img/attention.png"",0],[""img/square.png"",""img/square.png"",0]]","","","","","null","","","","","","","","","",""
"vsl-grid-attention-check","199","587835","0.0-5.0-5.0-0.41-0.41","","null","[[""img/square.png"",""img/square.png"",0],[""img/square.png"",""img/attention.png"",0],[""img/square.png"",""img/square.png"",0]]","","","","","null","","","","","","","","","",""
"vsl-grid-attention-check","200","590844","0.0-5.0-5.0-0.42-0.42","","null","[[""img/square.png"",""img/square.png"",0],[""img/square.png"",""img/attention.png"",0],[""img/square.png"",""img/square.png"",0]]","","","","","null","","","","","","","","","",""
"vsl-grid-attention-check","201","593856","0.0-5.0-5.0-0.43-0.43","","null","[[0,""img/square.png"",0],[""img/square.png"",""img/attention.png"",""img/square.png""],[""img/square.png"",0,""img/square.png""]]","","","","","null","","","","","","","","","",""
"vsl-grid-attention-check","202","596861","0.0-5.0-5.0-0.44-0.44","","null","[[""img/square.png"",""img/square.png"",0],[""img/square.png"",""img/attention.png"",0],[""img/square.png"",0,""img/square.png""]]","","","","","null","","","","","","","","","",""
"vsl-grid-attention-check","203","599865","0.0-5.0-5.0-0.45-0.45","","null","[[""img/square.png"",0,0],[""img/square.png"",""img/attention.png"",0],[""img/square.png"",""img/square.png"",""img/square.png""]]","","","","","null","","","","","","","","","",""
"vsl-grid-attention-check","204","602877","0.0-5.0-5.0-0.46-0.46","","null","[[""img/square.png"",""img/square.png"",0],[0,""img/attention.png"",""img/square.png""],[""img/square.png"",""img/square.png"",0]]","","","","","null","","","","","","","","","",""
"vsl-grid-attention-check","205","605880","0.0-5.0-5.0-0.47-0.47","","null","[[""img/square.png"",""img/square.png"",0],[""img/square.png"",""img/attention.png"",0],[0,""img/square.png"",""img/square.png""]]","","","","","null","","","","","","","","","",""
"vsl-grid-attention-check","206","608896","0.0-5.0-5.0-0.48-0.48","","null","[[0,""img/square.png"",0],[""img/square.png"",""img/attention.png"",0],[""img/square.png"",""img/square.png"",""img/square.png""]]","","","","","null","","","","","","","","","",""
"vsl-grid-attention-check","207","611898","0.0-5.0-5.0-0.49-0.49","","null","[[0,""img/square.png"",""img/square.png""],[""img/square.png"",""img/attention.png"",0],[0,""img/square.png"",""img/square.png""]]","","","","","null","","","","","","","","","",""
"vsl-grid-attention-check","208","614909","0.0-5.0-5.0-0.50-0.50","","null","[[""img/square.png"",""img/square.png"",0],[""img/square.png"",""img/attention.png"",0],[""img/square.png"",""img/square.png"",0]]","","","","","null","","","","","","","","","",""
"vsl-grid-attention-check","209","617923","0.0-5.0-5.0-0.51-0.51","","null","[[0,""img/square.png"",0],[""img/square.png"",""img/attention.png"",0],[""img/square.png"",""img/square.png"",""img/square.png""]]","","","","","null","","","","","","","","","",""
"vsl-grid-attention-check","210","620927","0.0-5.0-5.0-0.52-0.52","","null","[[0,0,""img/square.png""],[0,""img/attention.png"",""img/square.png""],[""img/square.png"",""img/square.png"",""img/square.png""]]","","","","","null","","","","","","","","","",""
"vsl-grid-attention-check","211","623929","0.0-5.0-5.0-0.53-0.53","","null","[[0,""img/square.png"",0],[""img/square.png"",""img/attention.png"",""img/square.png""],[""img/square.png"",0,""img/square.png""]]","","","","","null","","","","","","","","","",""
"vsl-grid-attention-check","212","626935","0.0-5.0-5.0-0.54-0.54","","null","[[""img/square.png"",0,""img/square.png""],[0,""img/attention.png"",0],[""img/square.png"",""img/square.png"",""img/square.png""]]","","","","","null","","","","","","","","","",""
"vsl-grid-attention-check","213","629948","0.0-5.0-5.0-0.55-0.55","","null","[[""img/square.png"",""img/square.png"",0],[""img/square.png"",""img/attention.png"",""img/square.png""],[""img/square.png"",0,0]]","","","","","null","","","","","","","","","",""
"vsl-grid-attention-check","214","632951","0.0-5.0-5.0-0.56-0.56","","null","[[""img/square.png"",0,""img/square.png""],[""img/square.png"",""img/attention.png"",0],[""img/square.png"",""img/square.png"",0]]","","","","","null","","","","","","","","","",""
"vsl-grid-attention-check","215","635954","0.0-5.0-5.0-0.57-0.57","","null","[[""img/square.png"",0,""img/square.png""],[0,""img/attention.png"",""img/square.png""],[0,""img/square.png"",""img/square.png""]]","","","","","null","","","","","","","","","",""
"vsl-grid-attention-check","216","638965","0.0-5.0-5.0-0.58-0.58","","null","[[0,""img/square.png"",0],[""img/square.png"",""img/attention.png"",""img/square.png""],[""img/square.png"",""img/square.png"",0]]","","","","","null","","","","","","","","","",""
"vsl-grid-attention-check","217","641967","0.0-5.0-5.0-0.59-0.59","","null","[[0,""img/square.png"",""img/square.png""],[""img/square.png"",""img/attention.png"",""img/square.png""],[0,0,""img/square.png""]]","","","","","null","","","","","","","","","",""
"vsl-grid-attention-check","218","644970","0.0-5.0-5.0-0.60-0.60","","null","[[""img/square.png"",""img/square.png"",0],[""img/square.png"",""img/attention.png"",""img/square.png""],[0,""img/square.png"",0]]","","","","","null","","","","","","","","","",""
"vsl-grid-attention-check","219","647974","0.0-5.0-5.0-0.61-0.61","","null","[[0,""img/square.png"",""img/square.png""],[""img/square.png"",""img/attention.png"",0],[""img/square.png"",0,""img/square.png""]]","","","","","null","","","","","","","","","",""
"vsl-grid-attention-check","220","650980","0.0-5.0-5.0-0.62-0.62","","null","[[0,""img/square.png"",""img/square.png""],[""img/square.png"",""img/attention.png"",""img/square.png""],[0,0,""img/square.png""]]","","","","","null","","","","","","","","","",""
"vsl-grid-attention-check","221","653982","0.0-5.0-5.0-0.63-0.63","","null","[[0,0,""img/square.png""],[""img/square.png"",""img/attention.png"",""img/square.png""],[0,""img/square.png"",""img/square.png""]]","","","","","null","","","","","","","","","",""
"vsl-grid-attention-check","222","656988","0.0-5.0-5.0-0.64-0.64","","null","[[""img/square.png"",0,""img/square.png""],[""img/square.png"",""img/attention.png"",""img/square.png""],[""img/square.png"",0,0]]","","","","","null","","","","","","","","","",""
"vsl-grid-attention-check","223","659998","0.0-5.0-5.0-0.65-0.65","","null","[[""img/square.png"",""img/square.png"",""img/square.png""],[0,""img/attention.png"",""img/square.png""],[""img/square.png"",0,0]]","","","","","null","","","","","","","","","",""
"vsl-grid-attention-check","224","663009","0.0-5.0-5.0-0.66-0.66","","null","[[""img/square.png"",""img/square.png"",0],[0,""img/attention.png"",0],[""img/square.png"",""img/square.png"",""img/square.png""]]","","","","","null","","","","","","","","","",""
"vsl-grid-attention-check","225","666012","0.0-5.0-5.0-0.67-0.67","","null","[[""img/square.png"",""img/square.png"",0],[""img/square.png"",""img/attention.png"",0],[""img/square.png"",0,""img/square.png""]]","","","","","null","","","","","","","","","",""
"vsl-grid-attention-check","226","669019","0.0-5.0-5.0-0.68-0.68","","null","[[""img/square.png"",""img/square.png"",""img/square.png""],[0,""img/attention.png"",0],[0,""img/square.png"",""img/square.png""]]","","","","","null","","","","","","","","","",""
"vsl-grid-attention-check","227","672021","0.0-5.0-5.0-0.69-0.69","","null","[[0,""img/square.png"",0],[""img/square.png"",""img/attention.png"",""img/square.png""],[""img/square.png"",0,""img/square.png""]]","","","","","null","","","","","","","","","",""
"vsl-grid-attention-check","228","675030","0.0-5.0-5.0-0.70-0.70","","null","[[""img/square.png"",0,0],[""img/square.png"",""img/attention.png"",""img/square.png""],[0,""img/square.png"",""img/square.png""]]","","","","","null","","","","","","","","","",""
"vsl-grid-attention-check","229","678043","0.0-5.0-5.0-0.71-0.71","","null","[[""img/square.png"",""img/square.png"",0],[""img/square.png"",""img/attention.png"",0],[0,""img/square.png"",""img/square.png""]]","","","","","null","","","","","","","","","",""
"vsl-grid-attention-check","230","681048","0.0-5.0-5.0-0.72-0.72","","null","[[""img/square.png"",""img/square.png"",0],[0,""img/attention.png"",""img/square.png""],[0,""img/square.png"",""img/square.png""]]","","","","","null","","","","","","","","","",""
"vsl-grid-attention-check","231","684058","0.0-5.0-5.0-0.73-0.73","","null","[[""img/square.png"",""img/square.png"",""img/square.png""],[""img/square.png"",""img/attention.png"",0],[0,0,""img/square.png""]]","","","","","null","","","","","","","","","",""
"vsl-grid-attention-check","232","687063","0.0-5.0-5.0-0.74-0.74","","null","[[""img/square.png"",""img/square.png"",""img/square.png""],[0,""img/attention.png"",0],[""img/square.png"",""img/square.png"",0]]","","","","","null","","","","","","","","","",""
"vsl-grid-attention-check","233","690075","0.0-5.0-5.0-0.75-0.75","","null","[[""img/square.png"",0,0],[""img/square.png"",""img/attention.png"",0],[""img/square.png"",""img/square.png"",""img/square.png""]]","","","","","null","","","","","","","","","",""
"vsl-grid-attention-check","234","693086","0.0-5.0-5.0-0.76-0.76","","null","[[0,""img/square.png"",""img/square.png""],[0,""img/attention.png"",""img/square.png""],[0,""img/square.png"",""img/square.png""]]","","","","","null","","","","","","","","","",""
"vsl-grid-attention-check","235","696088","0.0-5.0-5.0-0.77-0.77","","null","[[0,0,""img/square.png""],[""img/square.png"",""img/attention.png"",""img/square.png""],[""img/square.png"",""img/square.png"",0]]","","","","","null","","","","","","","","","",""
"vsl-grid-attention-check","236","699104","0.0-5.0-5.0-0.78-0.78","","null","[[""img/square.png"",0,""img/square.png""],[0,""img/attention.png"",""img/square.png""],[0,""img/square.png"",""img/square.png""]]","","","","","null","","","","","","","","","",""
"vsl-grid-attention-check","237","702106","0.0-5.0-5.0-0.79-0.79","","null","[[""img/square.png"",""img/square.png"",0],[0,""img/attention.png"",""img/square.png""],[""img/square.png"",0,""img/square.png""]]","","","","","null","","","","","","","","","",""
"vsl-grid-attention-check","238","705117","0.0-5.0-5.0-0.80-0.80","","null","[[""img/square.png"",""img/square.png"",0],[""img/square.png"",""img/attention.png"",""img/square.png""],[""img/square.png"",0,0]]","","","","","null","","","","","","","","","",""
"vsl-grid-attention-check","239","708120","0.0-5.0-5.0-0.81-0.81","","null","[[""img/square.png"",""img/square.png"",""img/square.png""],[0,""img/attention.png"",""img/square.png""],[""img/square.png"",0,0]]","","","","","null","","","","","","","","","",""
"vsl-grid-attention-check","240","711135","0.0-5.0-5.0-0.82-0.82","","null","[[0,0,""img/square.png""],[0,""img/attention.png"",""img/square.png""],[""img/square.png"",""img/square.png"",""img/square.png""]]","","","","","null","","","","","","","","","",""
"vsl-grid-attention-check","241","714138","0.0-5.0-5.0-0.83-0.83","","null","[[0,0,""img/square.png""],[""img/square.png"",""img/attention.png"",""img/square.png""],[""img/square.png"",""img/square.png"",0]]","","","","","null","","","","","","","","","",""
"vsl-grid-attention-check","242","717142","0.0-5.0-5.0-0.84-0.84","","null","[[""img/square.png"",0,""img/square.png""],[0,""img/attention.png"",""img/square.png""],[""img/square.png"",""img/square.png"",0]]","","","","","null","","","","","","","","","",""
"vsl-grid-attention-check","243","720150","0.0-5.0-5.0-0.85-0.85","","null","[[0,""img/square.png"",0],[""img/square.png"",""img/attention.png"",""img/square.png""],[""img/square.png"",""img/square.png"",0]]","","","","","null","","","","","","","","","",""
"vsl-grid-attention-check","244","723154","0.0-5.0-5.0-0.86-0.86","","null","[[""img/square.png"",0,""img/square.png""],[""img/square.png"",""img/attention.png"",""img/square.png""],[0,0,""img/square.png""]]","","","","","null","","","","","","","","","",""
"vsl-grid-attention-check","245","726155","0.0-5.0-5.0-0.87-0.87","","null","[[""img/square.png"",0,""img/square.png""],[""img/square.png"",""img/attention.png"",0],[0,""img/square.png"",""img/square.png""]]","","","","","null","","","","","","","","","",""
"vsl-grid-attention-check","246","729161","0.0-5.0-5.0-0.88-0.88","","null","[[0,""img/square.png"",""img/square.png""],[""img/square.png"",""img/attention.png"",""img/square.png""],[0,""img/square.png"",0]]","","","","","null","","","","","","","","","",""
"vsl-grid-attention-check","247","732166","0.0-5.0-5.0-0.89-0.89","","null","[[""img/square.png"",0,""img/square.png""],[""img/square.png"",""img/attention.png"",""img/square.png""],[0,0,""img/square.png""]]","","","","","null","","","","","","","","","",""
"vsl-grid-attention-check","248","735177","0.0-5.0-5.0-0.90-0.90","","null","[[0,""img/square.png"",""img/square.png""],[0,""img/attention.png"",0],[""img/square.png"",""img/square.png"",""img/square.png""]]","","","","","null","","","","","","","","","",""
"vsl-grid-attention-check","249","738184","0.0-5.0-5.0-0.91-0.91","","null","[[0,""img/square.png"",""img/square.png""],[""img/square.png"",""img/attention.png"",0],[0,""img/square.png"",""img/square.png""]]","","","","","null","","","","","","","","","",""
"vsl-grid-attention-check","250","741191","0.0-5.0-5.0-0.92-0.92","","null","[[""img/square.png"",0,""img/square.png""],[""img/square.png"",""img/attention.png"",""img/square.png""],[0,""img/square.png"",0]]","","","","","null","","","","","","","","","",""
"vsl-grid-attention-check","251","744197","0.0-5.0-5.0-0.93-0.93","","null","[[0,""img/square.png"",""img/square.png""],[""img/square.png"",""img/attention.png"",""img/square.png""],[""img/square.png"",0,0]]","","","","","null","","","","","","","","","",""
"vsl-grid-attention-check","252","747208","0.0-5.0-5.0-0.94-0.94","","null","[[0,""img/square.png"",""img/square.png""],[""img/square.png"",""img/attention.png"",""img/square.png""],[0,0,""img/square.png""]]","","","","","null","","","","","","","","","",""
"vsl-grid-attention-check","253","750211","0.0-5.0-5.0-0.95-0.95","","null","[[""img/square.png"",0,0],[""img/square.png"",""img/attention.png"",""img/square.png""],[""img/square.png"",0,""img/square.png""]]","","","","","null","","","","","","","","","",""
"vsl-grid-attention-check","254","753218","0.0-5.0-5.0-0.96-0.96","","null","[[""img/square.png"",""img/square.png"",0],[""img/square.png"",""img/attention.png"",""img/square.png""],[""img/square.png"",0,0]]","","","","","null","","","","","","","","","",""
"vsl-grid-attention-check","255","756233","0.0-5.0-5.0-0.97-0.97","","null","[[0,0,""img/square.png""],[0,""img/attention.png"",""img/square.png""],[""img/square.png"",""img/square.png"",""img/square.png""]]","","","","","null","","","","","","","","","",""
"vsl-grid-attention-check","256","759238","0.0-5.0-5.0-0.98-0.98","","null","[[""img/square.png"",""img/square.png"",0],[""img/square.png"",""img/attention.png"",""img/square.png""],[0,""img/square.png"",0]]","","","","","null","","","","","","","","","",""
"vsl-grid-attention-check","257","762248","0.0-5.0-5.0-0.99-0.99","","null","[[""img/square.png"",""img/square.png"",""img/square.png""],[0,""img/attention.png"",0],[""img/square.png"",""img/square.png"",0]]","","","","","null","","","","","","","","","",""
"vsl-grid-attention-check","258","765255","0.0-5.0-5.0-0.100-0.100","","null","[[""img/square.png"",""img/square.png"",0],[0,""img/attention.png"",""img/square.png""],[0,""img/square.png"",""img/square.png""]]","","","","","null","","","","","","","","","",""
"vsl-grid-attention-check","259","768258","0.0-5.0-5.0-0.101-0.101","","null","[[""img/square.png"",0,0],[""img/square.png"",""img/attention.png"",""img/square.png""],[""img/square.png"",0,""img/square.png""]]","","","","","null","","","","","","","","","",""
"vsl-grid-attention-check","260","771263","0.0-5.0-5.0-0.102-0.102","","null","[[""img/square.png"",""img/square.png"",""img/square.png""],[0,""img/attention.png"",""img/square.png""],[""img/square.png"",0,0]]","","","","","null","","","","","","","","","",""
"vsl-grid-attention-check","261","774267","0.0-5.0-5.0-0.103-0.103","","null","[[""img/square.png"",0,0],[""img/square.png"",""img/attention.png"",""img/square.png""],[""img/square.png"",0,""img/square.png""]]","","","","","null","","","","","","","","","",""
"vsl-grid-attention-check","262","777273","0.0-5.0-5.0-0.104-0.104","","null","[[""img/square.png"",0,""img/square.png""],[""img/square.png"",""img/attention.png"",""img/square.png""],[0,0,""img/square.png""]]","","","","","null","","","","","","","","","",""
"vsl-grid-attention-check","263","780286","0.0-5.0-5.0-0.105-0.105","","null","[[""img/square.png"",""img/square.png"",0],[""img/square.png"",""img/attention.png"",""img/square.png""],[0,""img/square.png"",0]]","","","","","null","","","","","","","","","",""
"vsl-grid-attention-check","264","783296","0.0-5.0-5.0-0.106-0.106","","null","[[""img/square.png"",0,""img/square.png""],[""img/square.png"",""img/attention.png"",0],[0,""img/square.png"",""img/square.png""]]","","","","","null","","","","","","","","","",""
"vsl-grid-attention-check","265","786308","0.0-5.0-5.0-0.107-0.107","","null","[[""img/square.png"",""img/square.png"",""img/square.png""],[0,""img/attention.png"",""img/square.png""],[0,""img/square.png"",0]]","","","","","null","","","","","","","","","",""
"vsl-grid-attention-check","266","789324","0.0-5.0-5.0-0.108-0.108","","null","[[0,0,0],[""img/square.png"",""img/attention.png"",""img/square.png""],[""img/square.png"",""img/square.png"",""img/square.png""]]","","","","","null","","","","","","","","","",""
"vsl-grid-attention-check","267","792331","0.0-5.0-5.0-0.109-0.109","","null","[[0,""img/square.png"",""img/square.png""],[""img/square.png"",""img/attention.png"",""img/square.png""],[0,0,""img/square.png""]]","","","","","null","","","","","","","","","",""
"vsl-grid-attention-check","268","795346","0.0-5.0-5.0-0.110-0.110","","null","[[""img/square.png"",""img/square.png"",0],[""img/square.png"",""img/attention.png"",""img/square.png""],[""img/square.png"",0,0]]","","","","","null","","","","","","","","","",""
"vsl-grid-attention-check","269","798361","0.0-5.0-5.0-0.111-0.111","","null","[[0,""img/square.png"",""img/square.png""],[0,""img/attention.png"",""img/square.png""],[""img/square.png"",""img/square.png"",0]]","","","","","null","","","","","","","","","",""
"vsl-grid-attention-check","270","801377","0.0-5.0-5.0-0.112-0.112","","null","[[""img/square.png"",""img/square.png"",""img/square.png""],[0,""img/attention.png"",""img/square.png""],[""img/square.png"",0,0]]","","","","","null","","","","","","","","","",""
"vsl-grid-attention-check","271","804380","0.0-5.0-5.0-0.113-0.113","","null","[[""img/square.png"",""img/square.png"",""img/square.png""],[0,""img/attention.png"",""img/square.png""],[0,""img/square.png"",0]]","","","","","null","","","","","","","","","",""
"vsl-grid-attention-check","272","807383","0.0-5.0-5.0-0.114-0.114","","null","[[""img/square.png"",""img/square.png"",""img/square.png""],[""img/square.png"",""img/attention.png"",0],[0,""img/square.png"",0]]","","","","","null","","","","","","","","","",""
"vsl-grid-attention-check","273","810400","0.0-5.0-5.0-0.115-0.115","","null","[[""img/square.png"",""img/square.png"",""img/square.png""],[""img/square.png"",""img/attention.png"",0],[""img/square.png"",0,0]]","","","","","null","","","","","","","","","",""
"vsl-grid-attention-check","274","813412","0.0-5.0-5.0-0.116-0.116","","null","[[0,""img/square.png"",""img/square.png""],[""img/square.png"",""img/attention.png"",""img/square.png""],[""img/square.png"",0,0]]","","","","","null","","","","","","","","","",""
"vsl-grid-attention-check","275","816428","0.0-5.0-5.0-0.117-0.117","","null","[[""img/square.png"",0,0],[""img/square.png"",""img/attention.png"",0],[""img/square.png"",""img/square.png"",""img/square.png""]]","","","","","null","","","","","","","","","",""
"vsl-grid-attention-check","276","819433","0.0-5.0-5.0-0.118-0.118","","null","[[""img/square.png"",""img/square.png"",""img/square.png""],[0,""img/attention.png"",""img/square.png""],[""img/square.png"",0,0]]","","","","","null","","","","","","","","","",""
"vsl-grid-attention-check","277","822435","0.0-5.0-5.0-0.119-0.119","","null","[[""img/square.png"",""img/square.png"",""img/square.png""],[""img/square.png"",""img/attention.png"",""img/square.png""],[0,0,0]]","","","","","null","","","","","","","","","",""
"vsl-grid-attention-check","278","825451","0.0-5.0-5.0-0.120-0.120","","null","[[0,""img/square.png"",""img/square.png""],[0,""img/attention.png"",0],[""img/square.png"",""img/square.png"",""img/square.png""]]","","","","","null","","","","","","","","","",""
"vsl-grid-attention-check","279","828468","0.0-5.0-5.0-0.121-0.121","","null","[[""img/square.png"",0,""img/square.png""],[0,""img/attention.png"",""img/square.png""],[""img/square.png"",0,""img/square.png""]]","","","","","null","","","","","","","","","",""
"vsl-grid-attention-check","280","831482","0.0-5.0-5.0-0.122-0.122","","null","[[""img/square.png"",""img/square.png"",0],[0,""img/attention.png"",""img/square.png""],[""img/square.png"",0,""img/square.png""]]","","","","","null","","","","","","","","","",""
"vsl-grid-attention-check","281","834500","0.0-5.0-5.0-0.123-0.123","","null","[[""img/square.png"",0,""img/square.png""],[""img/square.png"",""img/attention.png"",""img/square.png""],[""img/square.png"",0,0]]","","","","","null","","","","","","","","","",""
"vsl-grid-attention-check","282","837511","0.0-5.0-5.0-0.124-0.124","","null","[[0,""img/square.png"",""img/square.png""],[""img/square.png"",""img/attention.png"",""img/square.png""],[""img/square.png"",0,0]]","","","","","null","","","","","","","","","",""
"vsl-grid-attention-check","283","840525","0.0-5.0-5.0-0.125-0.125","","null","[[""img/square.png"",""img/square.png"",0],[""img/square.png"",""img/attention.png"",0],[0,""img/square.png"",""img/square.png""]]","","","","","null","","","","","","","","","",""
"vsl-grid-attention-check","284","843529","0.0-5.0-5.0-0.126-0.126","","null","[[0,""img/square.png"",""img/square.png""],[""img/square.png"",""img/attention.png"",""img/square.png""],[""img/square.png"",0,0]]","","","","","null","","","","","","","","","",""
"vsl-grid-attention-check","285","846531","0.0-5.0-5.0-0.127-0.127","","null","[[0,""img/square.png"",0],[""img/square.png"",""img/attention.png"",""img/square.png""],[0,""img/square.png"",""img/square.png""]]","","","","","null","","","","","","","","","",""
"vsl-grid-attention-check","286","849543","0.0-5.0-5.0-0.128-0.128","","null","[[0,""img/square.png"",0],[""img/square.png"",""img/attention.png"",0],[""img/square.png"",""img/square.png"",""img/square.png""]]","","","","","null","","","","","","","","","",""
"vsl-grid-attention-check","287","852546","0.0-5.0-5.0-0.129-0.129","","null","[[""img/square.png"",0,""img/square.png""],[0,""img/attention.png"",""img/square.png""],[""img/square.png"",""img/square.png"",0]]","","","","","null","","","","","","","","","",""
"vsl-grid-attention-check","288","855561","0.0-5.0-5.0-0.130-0.130","","null","[[""img/square.png"",0,""img/square.png""],[""img/square.png"",""img/attention.png"",0],[0,""img/square.png"",""img/square.png""]]","","","","","null","","","","","","","","","",""
"vsl-grid-attention-check","289","858563","0.0-5.0-5.0-0.131-0.131","","null","[[""img/square.png"",""img/square.png"",""img/square.png""],[0,""img/attention.png"",""img/square.png""],[0,0,""img/square.png""]]","","","","","null","","","","","","","","","",""
"vsl-grid-attention-check","290","861572","0.0-5.0-5.0-0.132-0.132","","null","[[""img/square.png"",0,0],[""img/square.png"",""img/attention.png"",""img/square.png""],[0,""img/square.png"",""img/square.png""]]","","","","","null","","","","","","","","","",""
"vsl-grid-attention-check","291","864584","0.0-5.0-5.0-0.133-0.133","","null","[[0,0,""img/square.png""],[""img/square.png"",""img/attention.png"",""img/square.png""],[""img/square.png"",""img/square.png"",0]]","","","","","null","","","","","","","","","",""
"vsl-grid-attention-check","292","867598","0.0-5.0-5.0-0.134-0.134","","null","[[0,""img/square.png"",""img/square.png""],[0,""img/attention.png"",0],[""img/square.png"",""img/square.png"",""img/square.png""]]","","","","","null","","","","","","","","","",""
"vsl-grid-attention-check","293","870612","0.0-5.0-5.0-0.135-0.135","","null","[[0,""img/square.png"",""img/square.png""],[""img/square.png"",""img/attention.png"",0],[""img/square.png"",0,""img/square.png""]]","","","","","null","","","","","","","","","",""
"vsl-grid-attention-check","294","873628","0.0-5.0-5.0-0.136-0.136","","null","[[0,""img/square.png"",""img/square.png""],[""img/square.png"",""img/attention.png"",0],[""img/square.png"",""img/square.png"",0]]","","","","","null","","","","","","","","","",""
"vsl-grid-attention-check","295","876630","0.0-5.0-5.0-0.137-0.137","","null","[[""img/square.png"",""img/square.png"",0],[0,""img/attention.png"",""img/square.png""],[0,""img/square.png"",""img/square.png""]]","","","","","null","","","","","","","","","",""
"vsl-grid-attention-check","296","879642","0.0-5.0-5.0-0.138-0.138","","null","[[""img/square.png"",0,""img/square.png""],[""img/square.png"",""img/attention.png"",0],[0,""img/square.png"",""img/square.png""]]","","","","","null","","","","","","","","","",""
"vsl-grid-attention-check","297","882644","0.0-5.0-5.0-0.139-0.139","","null","[[0,""img/square.png"",""img/square.png""],[""img/square.png"",""img/attention.png"",""img/square.png""],[0,0,""img/square.png""]]","","","","","null","","","","","","","","","",""
"vsl-grid-attention-check","298","885654","0.0-5.0-5.0-0.140-0.140","","null","[[""img/square.png"",0,""img/square.png""],[""img/square.png"",""img/attention.png"",0],[""img/square.png"",0,""img/square.png""]]","","","","","null","","","","","","","","","",""
"vsl-grid-attention-check","299","888669","0.0-5.0-5.0-0.141-0.141","","null","[[0,""img/square.png"",0],[""img/square.png"",""img/attention.png"",""img/square.png""],[""img/square.png"",""img/square.png"",0]]","","","","","null","","","","","","","","","",""
"vsl-grid-attention-check","300","891686","0.0-5.0-5.0-0.142-0.142","","null","[[""img/square.png"",0,""img/square.png""],[0,""img/attention.png"",""img/square.png""],[0,""img/square.png"",""img/square.png""]]","","","","","null","","","","","","","","","",""
"vsl-grid-attention-check","301","894689","0.0-5.0-5.0-0.143-0.143","","null","[[""img/square.png"",0,0],[""img/square.png"",""img/attention.png"",""img/square.png""],[0,""img/square.png"",""img/square.png""]]","","","","","null","","","","","","","","","",""
"vsl-grid-attention-check","302","897692","0.0-5.0-5.0-0.144-0.144","","null","[[0,""img/square.png"",""img/square.png""],[0,""img/attention.png"",""img/square.png""],[""img/square.png"",0,""img/square.png""]]","","","","","null","","","","","","","","","",""
"vsl-grid-attention-check","303","900702","0.0-5.0-5.0-0.145-0.145","","null","[[""img/square.png"",""img/square.png"",0],[""img/square.png"",""img/attention.png"",0],[""img/square.png"",""img/square.png"",0]]","","","","","null","","","","","","","","","",""
"vsl-grid-attention-check","304","903712","0.0-5.0-5.0-0.146-0.146","","null","[[""img/square.png"",""img/square.png"",0],[""img/square.png"",""img/attention.png"",""img/square.png""],[""img/square.png"",0,0]]","","","","","null","","","","","","","","","",""
"vsl-grid-attention-check","305","906723","0.0-5.0-5.0-0.147-0.147","","null","[[""img/square.png"",""img/square.png"",0],[""img/square.png"",""img/attention.png"",""img/square.png""],[0,""img/square.png"",0]]","","","","","null","","","","","","","","","",""
"vsl-grid-attention-check","306","909727","0.0-5.0-5.0-0.148-0.148","","null","[[0,0,""img/square.png""],[""img/square.png"",""img/attention.png"",""img/square.png""],[0,""img/square.png"",""img/square.png""]]","","","","","null","","","","","","","","","",""
"vsl-grid-attention-check","307","912730","0.0-5.0-5.0-0.149-0.149","","null","[[""img/square.png"",""img/square.png"",""img/square.png""],[""img/square.png"",""img/attention.png"",""img/square.png""],[0,0,0]]","","","","","null","","","","","","","","","",""
"vsl-grid-attention-check","308","915734","0.0-5.0-5.0-0.150-0.150","","null","[[0,""img/square.png"",0],[""img/square.png"",""img/attention.png"",0],[""img/square.png"",""img/square.png"",""img/square.png""]]","","","","","null","","","","","","","","","",""
"vsl-grid-attention-check","309","918736","0.0-5.0-5.0-0.151-0.151","","null","[[""img/square.png"",0,0],[""img/square.png"",""img/attention.png"",0],[""img/square.png"",""img/square.png"",""img/square.png""]]","","","","","null","","","","","","","","","",""
"vsl-grid-attention-check","310","921751","0.0-5.0-5.0-0.152-0.152","","null","[[""img/square.png"",""img/square.png"",""img/square.png""],[""img/square.png"",""img/attention.png"",0],[0,""img/square.png"",0]]","","","","","null","","","","","","","","","",""
"vsl-grid-attention-check","311","924754","0.0-5.0-5.0-0.153-0.153","","null","[[""img/square.png"",""img/square.png"",""img/square.png""],[""img/square.png"",""img/attention.png"",0],[0,0,""img/square.png""]]","","","","","null","","","","","","","","","",""
"vsl-grid-attention-check","312","927769","0.0-5.0-5.0-0.154-0.154","","null","[[""img/square.png"",0,""img/square.png""],[""img/square.png"",""img/attention.png"",""img/square.png""],[0,0,""img/square.png""]]","","","","","null","","","","","","","","","",""
"vsl-grid-attention-check","313","930779","0.0-5.0-5.0-0.155-0.155","","null","[[""img/square.png"",0,""img/square.png""],[0,""img/attention.png"",""img/square.png""],[0,""img/square.png"",""img/square.png""]]","","","","","null","","","","","","","","","",""
"vsl-grid-attention-check","314","933793","0.0-5.0-5.0-0.156-0.156","","null","[[""img/square.png"",0,""img/square.png""],[0,""img/attention.png"",""img/square.png""],[""img/square.png"",""img/square.png"",0]]","","","","","null","","","","","","","","","",""
"vsl-grid-attention-check","315","936801","0.0-5.0-5.0-0.157-0.157","","null","[[0,""img/square.png"",""img/square.png""],[0,""img/attention.png"",0],[""img/square.png"",""img/square.png"",""img/square.png""]]","","","","","null","","","","","","","","","",""
"vsl-grid-attention-check","316","939817","0.0-5.0-5.0-0.158-0.158","","null","[[""img/square.png"",0,0],[""img/square.png"",""img/attention.png"",""img/square.png""],[""img/square.png"",0,""img/square.png""]]","","","","","null","","","","","","","","","",""
"vsl-grid-attention-check","317","942822","0.0-5.0-5.0-0.159-0.159","","null","[[""img/square.png"",""img/square.png"",0],[0,""img/attention.png"",""img/square.png""],[""img/square.png"",0,""img/square.png""]]","","","","","null","","","","","","","","","",""
"vsl-grid-attention-check","318","945840","0.0-5.0-5.0-0.160-0.160","","null","[[0,""img/square.png"",""img/square.png""],[""img/square.png"",""img/attention.png"",0],[""img/square.png"",0,""img/square.png""]]","","","","","null","","","","","","","","","",""
"vsl-grid-attention-check","319","948842","0.0-5.0-5.0-0.161-0.161","","null","[[""img/square.png"",""img/square.png"",0],[""img/square.png"",""img/attention.png"",""img/square.png""],[""img/square.png"",0,0]]","","","","","null","","","","","","","","","",""
"vsl-grid-attention-check","320","951855","0.0-5.0-5.0-0.162-0.162","","null","[[""img/square.png"",""img/square.png"",""img/square.png""],[0,""img/attention.png"",""img/square.png""],[0,""img/square.png"",0]]","","","","","null","","","","","","","","","",""
"vsl-grid-attention-check","321","954859","0.0-5.0-5.0-0.163-0.163","","null","[[""img/square.png"",0,0],[""img/square.png"",""img/attention.png"",""img/square.png""],[""img/square.png"",0,""img/square.png""]]","","","","","null","","","","","","","","","",""
"vsl-grid-attention-check","322","957871","0.0-5.0-5.0-0.164-0.164","","null","[[0,""img/square.png"",0],[0,""img/attention.png"",""img/square.png""],[""img/square.png"",""img/square.png"",""img/square.png""]]","","","","","null","","","","","","","","","",""
"vsl-grid-attention-check","323","960882","0.0-5.0-5.0-0.165-0.165","","null","[[0,0,""img/square.png""],[0,""img/attention.png"",""img/square.png""],[""img/square.png"",""img/square.png"",""img/square.png""]]","","","","","null","","","","","","","","","",""
"vsl-grid-attention-check","324","963887","0.0-5.0-5.0-0.166-0.166","","null","[[""img/square.png"",""img/square.png"",""img/square.png""],[0,""img/attention.png"",""img/square.png""],[0,""img/square.png"",0]]","","","","","null","","","","","","","","","",""
"vsl-grid-attention-check","325","966891","0.0-5.0-5.0-0.167-0.167","","null","[[0,""img/square.png"",""img/square.png""],[""img/square.png"",""img/attention.png"",""img/square.png""],[0,0,""img/square.png""]]","","","","","null","","","","","","","","","",""
"vsl-grid-attention-check","326","969905","0.0-5.0-5.0-0.168-0.168","","null","[[""img/square.png"",0,""img/square.png""],[""img/square.png"",""img/attention.png"",""img/square.png""],[0,0,""img/square.png""]]","","","","","null","","","","","","","","","",""
"vsl-grid-attention-check","327","972907","0.0-5.0-5.0-0.169-0.169","","null","[[""img/square.png"",""img/square.png"",""img/square.png""],[""img/square.png"",""img/attention.png"",0],[0,0,""img/square.png""]]","","","","","null","","","","","","","","","",""
"vsl-grid-attention-check","328","975910","0.0-5.0-5.0-0.170-0.170","","null","[[""img/square.png"",""img/square.png"",0],[""img/square.png"",""img/attention.png"",0],[0,""img/square.png"",""img/square.png""]]","","","","","null","","","","","","","","","",""
"vsl-grid-attention-check","329","978921","0.0-5.0-5.0-0.171-0.171","","null","[[0,""img/square.png"",0],[""img/square.png"",""img/attention.png"",""img/square.png""],[0,""img/square.png"",""img/square.png""]]","","","","","null","","","","","","","","","",""
"vsl-grid-attention-check","330","981929","0.0-5.0-5.0-0.172-0.172","","null","[[0,""img/square.png"",""img/square.png""],[0,""img/attention.png"",""img/square.png""],[0,""img/square.png"",""img/square.png""]]","","","","","null","","","","","","","","","",""
"vsl-grid-attention-check","331","984944","0.0-5.0-5.0-0.173-0.173","","null","[[""img/square.png"",""img/square.png"",""img/square.png""],[""img/square.png"",""img/attention.png"",0],[0,0,""img/square.png""]]","","","","","null","","","","","","","","","",""
"vsl-grid-attention-check","332","987953","0.0-5.0-5.0-0.174-0.174","","null","[[0,0,""img/square.png""],[""img/square.png"",""img/attention.png"",""img/square.png""],[""img/square.png"",0,""img/square.png""]]","","","","","null","","","","","","","","","",""
"vsl-grid-attention-check","333","990964","0.0-5.0-5.0-0.175-0.175","","null","[[0,""img/square.png"",""img/square.png""],[0,""img/attention.png"",""img/square.png""],[0,""img/square.png"",""img/square.png""]]","","","","","null","","","","","","","","","",""
"vsl-grid-attention-check","334","993980","0.0-5.0-5.0-0.176-0.176","","null","[[0,""img/square.png"",0],[""img/square.png"",""img/attention.png"",""img/square.png""],[""img/square.png"",""img/square.png"",0]]","","","","","null","","","","","","","","","",""
"vsl-grid-attention-check","335","996982","0.0-5.0-5.0-0.177-0.177","","null","[[""img/square.png"",0,""img/square.png""],[""img/square.png"",""img/attention.png"",0],[""img/square.png"",0,""img/square.png""]]","","","","","null","","","","","","","","","",""
"vsl-grid-attention-check","336","999985","0.0-5.0-5.0-0.178-0.178","","null","[[0,0,""img/square.png""],[0,""img/attention.png"",""img/square.png""],[""img/square.png"",""img/square.png"",""img/square.png""]]","","","","","null","","","","","","","","","",""
"vsl-grid-attention-check","337","1002986","0.0-5.0-5.0-0.179-0.179","","null","[[0,""img/square.png"",""img/square.png""],[""img/square.png"",""img/attention.png"",""img/square.png""],[0,0,""img/square.png""]]","","","","","null","","","","","","","","","",""
"vsl-grid-attention-check","338","1005993","0.0-5.0-5.0-0.180-0.180","","null","[[""img/square.png"",""img/square.png"",0],[0,""img/attention.png"",""img/square.png""],[0,""img/square.png"",""img/square.png""]]","","","","","null","","","","","","","","","",""
"vsl-grid-attention-check","339","1009001","0.0-5.0-5.0-0.181-0.181","","null","[[0,""img/square.png"",""img/square.png""],[0,""img/attention.png"",""img/square.png""],[""img/square.png"",0,""img/square.png""]]","","","","","null","","","","","","","","","",""
"vsl-grid-attention-check","340","1012007","0.0-5.0-5.0-0.182-0.182","","null","[[0,""img/square.png"",""img/square.png""],[0,""img/attention.png"",""img/square.png""],[""img/square.png"",""img/square.png"",0]]","","","","","null","","","","","","","","","",""
"vsl-grid-attention-check","341","1015022","0.0-5.0-5.0-0.183-0.183","","null","[[""img/square.png"",""img/square.png"",0],[""img/square.png"",""img/attention.png"",""img/square.png""],[""img/square.png"",0,0]]","","","","","null","","","","","","","","","",""
"vsl-grid-attention-check","342","1018040","0.0-5.0-5.0-0.184-0.184","","null","[[""img/square.png"",""img/square.png"",""img/square.png""],[""img/square.png"",""img/attention.png"",0],[""img/square.png"",0,0]]","","","","","null","","","","","","","","","",""
"vsl-grid-attention-check","343","1021044","0.0-5.0-5.0-0.185-0.185","","null","[[0,""img/square.png"",""img/square.png""],[""img/square.png"",""img/attention.png"",0],[""img/square.png"",0,""img/square.png""]]","","","","","null","","","","","","","","","",""
"vsl-grid-attention-check","344","1024050","0.0-5.0-5.0-0.186-0.186","","null","[[0,""img/square.png"",""img/square.png""],[0,""img/attention.png"",""img/square.png""],[""img/square.png"",0,""img/square.png""]]","","","","","null","","","","","","","","","",""
"vsl-grid-attention-check","345","1027052","0.0-5.0-5.0-0.187-0.187","","null","[[0,""img/square.png"",0],[""img/square.png"",""img/attention.png"",""img/square.png""],[""img/square.png"",0,""img/square.png""]]","","","","","null","","","","","","","","","",""
"vsl-grid-attention-check","346","1030060","0.0-5.0-5.0-0.188-0.188","","null","[[0,""img/square.png"",""img/square.png""],[""img/square.png"",""img/attention.png"",0],[""img/square.png"",""img/square.png"",0]]","","","","","null","","","","","","","","","",""
"vsl-grid-attention-check","347","1033065","0.0-5.0-5.0-0.189-0.189","","null","[[0,""img/square.png"",0],[""img/square.png"",""img/attention.png"",""img/square.png""],[0,""img/square.png"",""img/square.png""]]","","","","","null","","","","","","","","","",""
"vsl-grid-attention-check","348","1036067","0.0-5.0-5.0-0.190-0.190","","null","[[0,0,0],[""img/square.png"",""img/attention.png"",""img/square.png""],[""img/square.png"",""img/square.png"",""img/square.png""]]","","","","","null","","","","","","","","","",""
"vsl-grid-attention-check","349","1039070","0.0-5.0-5.0-0.191-0.191","","null","[[0,""img/square.png"",""img/square.png""],[0,""img/attention.png"",""img/square.png""],[0,""img/square.png"",""img/square.png""]]","","","","","null","","","","","","","","","",""
"vsl-grid-attention-check","350","1042086","0.0-5.0-5.0-0.192-0.192","","null","[[""img/square.png"",""img/square.png"",0],[""img/square.png"",""img/attention.png"",""img/square.png""],[0,""img/square.png"",0]]","","","","","null","","","","","","","","","",""
"vsl-grid-attention-check","351","1045089","0.0-5.0-5.0-0.193-0.193","","null","[[""img/square.png"",0,0],[""img/square.png"",""img/attention.png"",""img/square.png""],[0,""img/square.png"",""img/square.png""]]","","","","","null","","","","","","","","","",""
"vsl-grid-attention-check","352","1048104","0.0-5.0-5.0-0.194-0.194","","null","[[""img/square.png"",0,""img/square.png""],[""img/square.png"",""img/attention.png"",""img/square.png""],[0,""img/square.png"",0]]","","","","","null","","","","","","","","","",""
"vsl-grid-attention-check","353","1051113","0.0-5.0-5.0-0.195-0.195","","null","[[""img/square.png"",0,""img/square.png""],[0,""img/attention.png"",""img/square.png""],[0,""img/square.png"",""img/square.png""]]","","","","","null","","","","","","","","","",""
"vsl-grid-attention-check","354","1054115","0.0-5.0-5.0-0.196-0.196","","null","[[""img/square.png"",0,""img/square.png""],[""img/square.png"",""img/attention.png"",""img/square.png""],[0,0,""img/square.png""]]","","","","","null","","","","","","","","","",""
"vsl-grid-attention-check","355","1057124","0.0-5.0-5.0-0.197-0.197","","null","[[""img/square.png"",""img/square.png"",0],[""img/square.png"",""img/attention.png"",""img/square.png""],[""img/square.png"",0,0]]","","","","","null","","","","","","","","","",""
"vsl-grid-attention-check","356","1060139","0.0-5.0-5.0-0.198-0.198","","null","[[""img/square.png"",""img/square.png"",0],[""img/square.png"",""img/attention.png"",""img/square.png""],[0,""img/square.png"",0]]","","","","","null","","","","","","","","","",""
"vsl-grid-attention-check","357","1063142","0.0-5.0-5.0-0.199-0.199","","null","[[""img/square.png"",0,""img/square.png""],[0,""img/attention.png"",""img/square.png""],[""img/square.png"",0,""img/square.png""]]","","","","","null","","","","","","","","","",""
"vsl-grid-attention-check","358","1066144","0.0-5.0-5.0-0.200-0.200","","null","[[""img/square.png"",0,""img/square.png""],[0,""img/attention.png"",""img/square.png""],[""img/square.png"",0,""img/square.png""]]","","","","","null","","","","","","","","","",""
"vsl-grid-attention-check","359","1069149","0.0-5.0-5.0-0.201-0.201","","null","[[0,""img/square.png"",""img/square.png""],[0,""img/attention.png"",0],[""img/square.png"",""img/square.png"",""img/square.png""]]","","","","","null","","","","","","","","","",""
"vsl-grid-attention-check","360","1072154","0.0-5.0-5.0-0.202-0.202","","null","[[0,0,""img/square.png""],[""img/square.png"",""img/attention.png"",""img/square.png""],[0,""img/square.png"",""img/square.png""]]","","","","","null","","","","","","","","","",""
"vsl-grid-attention-check","361","1075168","0.0-5.0-5.0-0.203-0.203","","null","[[0,0,""img/square.png""],[0,""img/attention.png"",""img/square.png""],[""img/square.png"",""img/square.png"",""img/square.png""]]","","","","","null","","","","","","","","","",""
"vsl-grid-attention-check","362","1078180","0.0-5.0-5.0-0.204-0.204","","null","[[0,""img/square.png"",0],[""img/square.png"",""img/attention.png"",""img/square.png""],[0,""img/square.png"",""img/square.png""]]","","","","","null","","","","","","","","","",""
"vsl-grid-attention-check","363","1081183","0.0-5.0-5.0-0.205-0.205","","null","[[""img/square.png"",0,""img/square.png""],[""img/square.png"",""img/attention.png"",""img/square.png""],[0,""img/square.png"",0]]","","","","","null","","","","","","","","","",""
"vsl-grid-attention-check","364","1084200","0.0-5.0-5.0-0.206-0.206","","null","[[0,""img/square.png"",""img/square.png""],[""img/square.png"",""img/attention.png"",0],[""img/square.png"",""img/square.png"",0]]","","","","","null","","","","","","","","","",""
"vsl-grid-attention-check","365","1087202","0.0-5.0-5.0-0.207-0.207","","null","[[0,0,""img/square.png""],[""img/square.png"",""img/attention.png"",""img/square.png""],[0,""img/square.png"",""img/square.png""]]","","","","","null","","","","","","","","","",""
"vsl-grid-attention-check","366","1090208","0.0-5.0-5.0-0.208-0.208","","null","[[""img/square.png"",""img/square.png"",""img/square.png""],[0,""img/attention.png"",0],[""img/square.png"",""img/square.png"",0]]","","","","","null","","","","","","","","","",""
"vsl-grid-attention-check","367","1093212","0.0-5.0-5.0-0.209-0.209","","null","[[0,""img/square.png"",""img/square.png""],[""img/square.png"",""img/attention.png"",0],[""img/square.png"",0,""img/square.png""]]","","","","","null","","","","","","","","","",""
"vsl-grid-attention-check","368","1096216","0.0-5.0-5.0-0.210-0.210","","null","[[""img/square.png"",""img/square.png"",0],[""img/square.png"",""img/attention.png"",""img/square.png""],[""img/square.png"",0,0]]","","","","","null","","","","","","","","","",""
"vsl-grid-attention-check","369","1099228","0.0-5.0-5.0-0.211-0.211","","null","[[""img/square.png"",""img/square.png"",""img/square.png""],[0,""img/attention.png"",0],[0,""img/square.png"",""img/square.png""]]","","","","","null","","","","","","","","","",""
"vsl-grid-attention-check","370","1102233","0.0-5.0-5.0-0.212-0.212","","null","[[""img/square.png"",""img/square.png"",0],[0,""img/attention.png"",""img/square.png""],[0,""img/square.png"",""img/square.png""]]","","","","","null","","","","","","","","","",""
"vsl-grid-attention-check","371","1105240","0.0-5.0-5.0-0.213-0.213","","null","[[""img/square.png"",0,""img/square.png""],[0,""img/attention.png"",""img/square.png""],[0,""img/square.png"",""img/square.png""]]","","","","","null","","","","","","","","","",""
"vsl-grid-attention-check","372","1108257","0.0-5.0-5.0-0.214-0.214","","null","[[""img/square.png"",""img/square.png"",""img/square.png""],[""img/square.png"",""img/attention.png"",0],[""img/square.png"",0,0]]","","","","","null","","","","","","","","","",""
"vsl-grid-attention-check","373","1111259","0.0-5.0-5.0-0.215-0.215","","null","[[""img/square.png"",""img/square.png"",0],[0,""img/attention.png"",""img/square.png""],[""img/square.png"",0,""img/square.png""]]","","","","","null","","","","","","","","","",""
"vsl-grid-attention-check","374","1114277","0.0-5.0-5.0-0.216-0.216","","null","[[""img/square.png"",""img/square.png"",""img/square.png""],[""img/square.png"",""img/attention.png"",""img/square.png""],[0,0,0]]","","","","","null","","","","","","","","","",""
"vsl-grid-attention-check","375","1117292","0.0-5.0-5.0-0.217-0.217","","null","[[""img/square.png"",""img/square.png"",0],[0,""img/attention.png"",""img/square.png""],[""img/square.png"",0,""img/square.png""]]","","","","","null","","","","","","","","","",""
"vsl-grid-attention-check","376","1120296","0.0-5.0-5.0-0.218-0.218","","null","[[""img/square.png"",0,0],[""img/square.png"",""img/attention.png"",0],[""img/square.png"",""img/square.png"",""img/square.png""]]","","","","","null","","","","","","","","","",""
"vsl-grid-attention-check","377","1123298","0.0-5.0-5.0-0.219-0.219","","null","[[""img/square.png"",""img/square.png"",0],[""img/square.png"",""img/attention.png"",0],[""img/square.png"",""img/square.png"",0]]","","","","","null","","","","","","","","","",""
"vsl-grid-attention-check","378","1126305","0.0-5.0-5.0-0.220-0.220","","null","[[""img/square.png"",0,""img/square.png""],[0,""img/attention.png"",""img/square.png""],[""img/square.png"",0,""img/square.png""]]","","","","","null","","","","","","","","","",""
"vsl-grid-attention-check","379","1129308","0.0-5.0-5.0-0.221-0.221","","null","[[0,0,0],[""img/square.png"",""img/attention.png"",""img/square.png""],[""img/square.png"",""img/square.png"",""img/square.png""]]","","","","","null","","","","","","","","","",""
"vsl-grid-attention-check","380","1132323","0.0-5.0-5.0-0.222-0.222","","null","[[""img/square.png"",0,0],[""img/square.png"",""img/attention.png"",0],[""img/square.png"",""img/square.png"",""img/square.png""]]","","","","","null","","","","","","","","","",""
"vsl-grid-attention-check","381","1135326","0.0-5.0-5.0-0.223-0.223","","null","[[""img/square.png"",0,""img/square.png""],[0,""img/attention.png"",""img/square.png""],[""img/square.png"",""img/square.png"",0]]","","","","","null","","","","","","","","","",""
"vsl-grid-attention-check","382","1138335","0.0-5.0-5.0-0.224-0.224","","null","[[""img/square.png"",0,""img/square.png""],[""img/square.png"",""img/attention.png"",0],[0,""img/square.png"",""img/square.png""]]","","","","","null","","","","","","","","","",""
"vsl-grid-attention-check","383","1141337","0.0-5.0-5.0-0.225-0.225","","null","[[0,""img/square.png"",""img/square.png""],[0,""img/attention.png"",""img/square.png""],[0,""img/square.png"",""img/square.png""]]","","","","","null","","","","","","","","","",""
"vsl-grid-attention-check","384","1144344","0.0-5.0-5.0-0.226-0.226","","null","[[0,""img/square.png"",""img/square.png""],[""img/square.png"",""img/attention.png"",""img/square.png""],[0,""img/square.png"",0]]","","","","","null","","","","","","","","","",""
"vsl-grid-attention-check","385","1147351","0.0-5.0-5.0-0.227-0.227","","null","[[""img/square.png"",0,""img/square.png""],[""img/square.png"",""img/attention.png"",0],[0,""img/square.png"",""img/square.png""]]","","","","","null","","","","","","","","","",""
"vsl-grid-attention-check","386","1150359","0.0-5.0-5.0-0.228-0.228","","null","[[""img/square.png"",""img/square.png"",""img/square.png""],[0,""img/attention.png"",""img/square.png""],[""img/square.png"",0,0]]","","","","","null","","","","","","","","","",""
"vsl-grid-attention-check","387","1153362","0.0-5.0-5.0-0.229-0.229","","null","[[""img/square.png"",""img/square.png"",0],[0,""img/attention.png"",0],[""img/square.png"",""img/square.png"",""img/square.png""]]","","","","","null","","","","","","","","","",""
