"trial_type","trial_index","time_elapsed","internal_node_id","success","rt","stimulus","button_pressed","responses","training_vector","training_matrixRow","key_press","test_part","correct_response","test_number","test_vector","correct","image_switchboard","scene_order","participant","study","session"
"pavlovia","0","6","0.0-0.0","","","","","","","","","","","","","","","","","",""
"fullscreen","1","2840","0.0-1.0","true","","","","","","","","","","","","","","","","",""
"html-button-response","2","12113","0.0-2.0","","9269.600000023842","<p style=""text-align: justify;margin-left: 15%; margin-right:15%"">You are participating in an experiment at the Vision Lab of the Department of Cognitive Science, Central European University.  One of our main questions is what kind of representations we can create about our visual environment and how these representations influence our behavior. At our lab we use multiple methods, for example behavioral experiments and computational models. In this experiment you will observe scenes consisting of abstract shapes and answer simple questions about them. <br><br>At the beginning and throughout the experiment you will receive precise information about what to do. The experiment takes about 25 minutes in total. <br><br>The test is voluntary, and you can withdraw your participation at any time. We treat your personal information confidentially. <br>Only those people who work on this research project have access to your data. We will work with group level statistics. We will only report the results of the group in scientific publications and conferences. This research was approved by the Hungarian Psychological Research Ethics Committee.<br><br>If you have any further questions about the study, you can contact the experimenter, Beata Tunde Szabo, PhD Student. Contact: 1051 Nador u. 11. E-mail: szabo_beata-tunde@phd.ceu.edu <br><br>By pressing the button below you indicate that you read this information, found it sufficent, and you consent to participate in the experiment. <br><br> </p>","0","","","","","","","","","","","","","",""
"survey-html-form","3","17671","0.0-3.0","","5556.5","","","{""Age"":""22"",""gender"":""Male"",""gender_other"":""""}","","","","","","","","","","","","",""
"html-button-response","4","51790","0.0-4.0","","34116.89999997616","<p style=""text-align: justify;margin-left: 15%; margin-right:15%""> This is your practice session. You will see a checkerboard with random simple shapes appearing in different positions in the checkerboard. Your task is simply to observe the patterns so that you would be able to answer some questions about the sequence after the practice session.  The session will last for about 15 minutes.  Please, pay attention to EACH display! <br><br>Occasionally, there will be an attention check asking you to press the spacebar. ","0","","","","","","","","","","","","","",""
"vsl-grid-scene-snap","5","53814","0.0-5.0-0.0-0.0","","","[[0,""img/obj4.png"",""img/obj5.png""],[""img/obj3.png"",0,""img/obj1.png""],[0,""img/obj2.png"",""img/obj7.png""]]","","","3,2,1,2,1,3,1,2,6","124","","","","","","","","","","",""
"vsl-grid-scene-snap","6","56822","0.0-5.0-0.0-1.0","","","[[""img/obj1.png"",0,0],[""img/obj7.png"",""img/obj6.png"",0],[""img/obj12.png"",""img/obj9.png"",""img/obj10.png""]]","","","1,1,1,2,3,4,2,2,5","18","","","","","","","","","","",""
"vsl-grid-scene-snap","7","59849","0.0-5.0-0.0-2.0","","","[[0,""img/obj6.png"",""img/obj1.png""],[""img/obj12.png"",0,""img/obj7.png""],[0,""img/obj9.png"",""img/obj10.png""]]","","","3,1,1,2,3,4,2,1,5","90","","","","","","","","","","",""
"vsl-grid-scene-snap","8","62857","0.0-5.0-0.0-3.0","","","[[""img/obj8.png"",""img/obj9.png"",""img/obj10.png""],[""img/obj11.png"",""img/obj3.png"",0],[0,0,""img/obj2.png""]]","","","1,1,2,2,1,4,2,2,6","11","","","","","","","","","","",""
"vsl-grid-scene-snap","9","65879","0.0-5.0-0.0-4.0","","","[[0,""img/obj4.png"",""img/obj5.png""],[""img/obj1.png"",""img/obj3.png"",0],[""img/obj7.png"",0,""img/obj2.png""]]","","","1,2,1,2,1,3,2,2,6","44","","","","","","","","","","",""
"vsl-grid-scene-snap","10","68892","0.0-5.0-0.0-5.0","","","[[""img/obj4.png"",""img/obj5.png"",0],[0,""img/obj6.png"",""img/obj1.png""],[""img/obj12.png"",0,""img/obj7.png""]]","","","3,2,1,1,1,3,2,2,5","108","","","","","","","","","","",""
"vsl-grid-scene-snap","11","71901","0.0-5.0-0.0-6.0","","","[[0,0,""img/obj6.png""],[""img/obj1.png"",""img/obj12.png"",0],[""img/obj7.png"",""img/obj9.png"",""img/obj10.png""]]","","","1,2,1,2,3,4,3,1,5","50","","","","","","","","","","",""
"vsl-grid-scene-snap","12","74917","0.0-5.0-0.0-7.0","","","[[""img/obj8.png"",""img/obj3.png"",0],[""img/obj11.png"",0,""img/obj2.png""],[""img/obj9.png"",""img/obj10.png"",0]]","","","1,1,2,1,3,4,2,1,6","31","","","","","","","","","","",""
"vsl-grid-scene-snap","13","77930","0.0-5.0-0.0-8.0","","","[[0,""img/obj6.png"",""img/obj8.png""],[""img/obj12.png"",0,""img/obj11.png""],[""img/obj9.png"",""img/obj10.png"",0]]","","","3,1,2,1,3,4,2,1,5","99","","","","","","","","","","",""
"vsl-grid-scene-snap","14","80937","0.0-5.0-0.0-9.0","","","[[0,0,""img/obj8.png""],[0,""img/obj3.png"",""img/obj11.png""],[""img/obj9.png"",""img/obj10.png"",""img/obj2.png""]]","","","3,1,2,1,3,4,2,2,6","107","","","","","","","","","","",""
"vsl-grid-scene-snap","15","83950","0.0-5.0-0.0-10.0","","","[[""img/obj9.png"",""img/obj10.png"",0],[""img/obj1.png"",0,""img/obj6.png""],[""img/obj7.png"",""img/obj12.png"",0]]","","","1,2,1,1,1,4,3,2,5","62","","","","","","","","","","",""
"vsl-grid-scene-snap","16","86974","0.0-5.0-0.0-11.0","","","[[""img/obj4.png"",""img/obj5.png"",0],[0,""img/obj6.png"",""img/obj8.png""],[""img/obj12.png"",0,""img/obj11.png""]]","","","3,2,2,1,1,3,2,2,5","109","","","","","","","","","","",""
"vsl-grid-scene-snap","17","90001","0.0-5.0-0.0-12.0","","","[[""img/obj4.png"",""img/obj5.png"",0],[""img/obj1.png"",0,""img/obj6.png""],[""img/obj7.png"",""img/obj12.png"",0]]","","","1,2,1,1,1,3,3,2,5","60","","","","","","","","","","",""
"vsl-grid-scene-snap","18","93011","0.0-5.0-0.0-13.0","","","[[""img/obj1.png"",0,0],[""img/obj7.png"",""img/obj6.png"",0],[""img/obj12.png"",""img/obj4.png"",""img/obj5.png""]]","","","1,1,1,2,3,3,2,2,5","16","","","","","","","","","","",""
"vsl-grid-scene-snap","19","96030","0.0-5.0-0.0-14.0","","","[[""img/obj4.png"",""img/obj5.png"",0],[""img/obj3.png"",0,""img/obj1.png""],[0,""img/obj2.png"",""img/obj7.png""]]","","","3,2,1,1,1,3,1,2,6","112","","","","","","","","","","",""
"vsl-grid-scene-snap","20","99052","0.0-5.0-0.0-15.0","","","[[""img/obj8.png"",0,0],[""img/obj11.png"",""img/obj3.png"",0],[""img/obj9.png"",""img/obj10.png"",""img/obj2.png""]]","","","1,1,2,1,3,4,2,2,6","35","","","","","","","","","","",""
"vsl-grid-scene-snap","21","102077","0.0-5.0-0.0-16.0","","","[[""img/obj8.png"",""img/obj4.png"",""img/obj5.png""],[""img/obj11.png"",0,""img/obj6.png""],[0,""img/obj12.png"",0]]","","","1,1,2,2,1,3,3,2,5","1","","","","","","","","","","",""
"vsl-grid-scene-snap","22","105092","0.0-5.0-0.0-17.0","","","[[0,""img/obj4.png"",""img/obj5.png""],[0,""img/obj6.png"",""img/obj1.png""],[""img/obj12.png"",0,""img/obj7.png""]]","","","3,2,1,2,1,3,2,2,5","120","","","","","","","","","","",""
"vsl-grid-scene-snap","23","108107","0.0-5.0-0.0-18.0","","","[[""img/obj9.png"",""img/obj10.png"",""img/obj6.png""],[""img/obj8.png"",""img/obj12.png"",0],[""img/obj11.png"",0,0]]","","","1,2,2,1,1,4,3,1,5","67","","","","","","","","","","",""
"vsl-grid-scene-snap","24","111119","0.0-5.0-0.0-19.0","","","[[""img/obj1.png"",""img/obj3.png"",0],[""img/obj7.png"",0,""img/obj2.png""],[0,""img/obj9.png"",""img/obj10.png""]]","","","1,1,1,2,3,4,2,1,6","22","","","","","","","","","","",""
"vsl-grid-scene-snap","25","114136","0.0-5.0-0.0-20.0","","","[[""img/obj3.png"",0,""img/obj1.png""],[0,""img/obj2.png"",""img/obj7.png""],[""img/obj4.png"",""img/obj5.png"",0]]","","","3,1,1,1,3,3,1,1,6","100","","","","","","","","","","",""
"vsl-grid-scene-snap","26","117156","0.0-5.0-0.0-21.0","","","[[0,""img/obj6.png"",""img/obj1.png""],[""img/obj12.png"",0,""img/obj7.png""],[""img/obj9.png"",""img/obj10.png"",0]]","","","3,1,1,1,3,4,2,1,5","98","","","","","","","","","","",""
"vsl-grid-scene-snap","27","120174","0.0-5.0-0.0-22.0","","","[[0,""img/obj6.png"",0],[""img/obj12.png"",0,""img/obj1.png""],[""img/obj4.png"",""img/obj5.png"",""img/obj7.png""]]","","","3,2,1,1,3,3,2,1,5","132","","","","","","","","","","",""
"vsl-grid-scene-snap","28","123194","0.0-5.0-0.0-23.0","","","[[""img/obj9.png"",""img/obj10.png"",""img/obj8.png""],[0,""img/obj6.png"",""img/obj11.png""],[""img/obj12.png"",0,0]]","","","3,1,2,1,1,4,2,2,5","75","","","","","","","","","","",""
"vsl-grid-scene-snap","29","126212","0.0-5.0-0.0-24.0","","","[[""img/obj4.png"",""img/obj5.png"",0],[""img/obj8.png"",0,""img/obj6.png""],[""img/obj11.png"",""img/obj12.png"",0]]","","","1,2,2,1,1,3,3,2,5","61","","","","","","","","","","",""
"vsl-grid-scene-snap","30","129226","0.0-5.0-0.0-25.0","","","[[""img/obj3.png"",0,""img/obj1.png""],[0,""img/obj2.png"",""img/obj7.png""],[0,""img/obj9.png"",""img/obj10.png""]]","","","3,1,1,2,3,4,1,1,6","94","","","","","","","","","","",""
"vsl-grid-scene-snap","31","132230","0.0-5.0-0.0-26.0","","","[[0,""img/obj6.png"",""img/obj8.png""],[""img/obj12.png"",0,""img/obj11.png""],[0,""img/obj9.png"",""img/obj10.png""]]","","","3,1,2,2,3,4,2,1,5","91","","","","","","","","","","",""
"vsl-grid-scene-snap","32","135248","0.0-5.0-0.0-27.0","","","[[""img/obj9.png"",""img/obj10.png"",""img/obj1.png""],[0,""img/obj6.png"",""img/obj7.png""],[""img/obj12.png"",0,0]]","","","3,1,1,1,1,4,2,2,5","74","","","","","","","","","","",""
"vsl-grid-scene-snap","33","138264","0.0-5.0-0.0-28.0","","","[[""img/obj4.png"",""img/obj5.png"",""img/obj6.png""],[""img/obj8.png"",""img/obj12.png"",0],[""img/obj11.png"",0,0]]","","","1,2,2,1,1,3,3,1,5","65","","","","","","","","","","",""
"vsl-grid-scene-snap","34","141268","0.0-5.0-0.0-29.0","","","[[""img/obj8.png"",""img/obj4.png"",""img/obj5.png""],[""img/obj11.png"",""img/obj3.png"",0],[0,0,""img/obj2.png""]]","","","1,1,2,2,1,3,2,2,6","9","","","","","","","","","","",""
"vsl-grid-scene-snap","35","144290","0.0-5.0-0.0-30.0","","","[[""img/obj1.png"",""img/obj4.png"",""img/obj5.png""],[""img/obj7.png"",0,""img/obj6.png""],[0,""img/obj12.png"",0]]","","","1,1,1,2,1,3,3,2,5","0","","","","","","","","","","",""
"vsl-grid-scene-snap","36","147297","0.0-5.0-0.0-31.0","","","[[""img/obj3.png"",0,0],[0,""img/obj2.png"",""img/obj8.png""],[""img/obj9.png"",""img/obj10.png"",""img/obj11.png""]]","","","3,2,2,1,3,4,1,1,6","139","","","","","","","","","","",""
"vsl-grid-scene-snap","37","150332","0.0-5.0-0.0-32.0","","","[[""img/obj3.png"",0,""img/obj8.png""],[0,""img/obj2.png"",""img/obj11.png""],[0,""img/obj9.png"",""img/obj10.png""]]","","","3,1,2,2,3,4,1,1,6","95","","","","","","","","","","",""
"vsl-grid-scene-snap","38","153358","0.0-5.0-0.0-33.0","","","[[0,""img/obj9.png"",""img/obj10.png""],[""img/obj8.png"",""img/obj3.png"",0],[""img/obj11.png"",0,""img/obj2.png""]]","","","1,2,2,2,1,4,2,2,6","47","","","","","","","","","","",""
"vsl-grid-scene-snap","39","156379","0.0-5.0-0.0-34.0","","","[[0,""img/obj9.png"",""img/obj10.png""],[""img/obj8.png"",0,""img/obj6.png""],[""img/obj11.png"",""img/obj12.png"",0]]","","","1,2,2,2,1,4,3,2,5","39","","","","","","","","","","",""
"vsl-grid-scene-snap","40","159393","0.0-5.0-0.0-35.0","","","[[""img/obj3.png"",""img/obj9.png"",""img/obj10.png""],[""img/obj8.png"",""img/obj2.png"",0],[""img/obj11.png"",0,0]]","","","1,2,2,2,1,4,1,1,6","43","","","","","","","","","","",""
"vsl-grid-scene-snap","41","162403","0.0-5.0-0.0-36.0","","","[[0,0,""img/obj8.png""],[0,""img/obj6.png"",""img/obj11.png""],[""img/obj12.png"",""img/obj9.png"",""img/obj10.png""]]","","","3,1,2,2,3,4,2,2,5","87","","","","","","","","","","",""
"vsl-grid-scene-snap","42","165410","0.0-5.0-0.0-37.0","","","[[""img/obj4.png"",""img/obj5.png"",0],[""img/obj8.png"",""img/obj3.png"",0],[""img/obj11.png"",0,""img/obj2.png""]]","","","1,2,2,1,1,3,2,2,6","69","","","","","","","","","","",""
"vsl-grid-scene-snap","43","168433","0.0-5.0-0.0-38.0","","","[[""img/obj9.png"",""img/obj10.png"",0],[0,""img/obj6.png"",""img/obj8.png""],[""img/obj12.png"",0,""img/obj11.png""]]","","","3,2,2,1,1,4,2,2,5","111","","","","","","","","","","",""
"vsl-grid-scene-snap","44","171468","0.0-5.0-0.0-39.0","","","[[0,""img/obj9.png"",""img/obj10.png""],[""img/obj1.png"",0,""img/obj6.png""],[""img/obj7.png"",""img/obj12.png"",0]]","","","1,2,1,2,1,4,3,2,5","38","","","","","","","","","","",""
"vsl-grid-scene-snap","45","174482","0.0-5.0-0.0-40.0","","","[[0,0,""img/obj1.png""],[0,""img/obj3.png"",""img/obj7.png""],[""img/obj4.png"",""img/obj5.png"",""img/obj2.png""]]","","","3,1,1,1,3,3,2,2,6","104","","","","","","","","","","",""
"vsl-grid-scene-snap","46","177492","0.0-5.0-0.0-41.0","","","[[0,""img/obj4.png"",""img/obj5.png""],[""img/obj1.png"",0,""img/obj6.png""],[""img/obj7.png"",""img/obj12.png"",0]]","","","1,2,1,2,1,3,3,2,5","36","","","","","","","","","","",""
"vsl-grid-scene-snap","47","180513","0.0-5.0-0.0-42.0","","","[[""img/obj8.png"",0,""img/obj6.png""],[""img/obj11.png"",""img/obj12.png"",0],[""img/obj9.png"",""img/obj10.png"",0]]","","","1,1,2,1,3,4,3,1,5","27","","","","","","","","","","",""
"vsl-grid-scene-snap","48","183529","0.0-5.0-0.0-43.0","","","[[""img/obj8.png"",0,0],[""img/obj11.png"",""img/obj6.png"",0],[""img/obj12.png"",""img/obj9.png"",""img/obj10.png""]]","","","1,1,2,2,3,4,2,2,5","19","","","","","","","","","","",""
"vsl-grid-scene-snap","49","186544","0.0-5.0-0.0-44.0","","","[[0,""img/obj4.png"",""img/obj5.png""],[""img/obj8.png"",0,""img/obj6.png""],[""img/obj11.png"",""img/obj12.png"",0]]","","","1,2,2,2,1,3,3,2,5","37","","","","","","","","","","",""
"vsl-grid-scene-snap","50","189549","0.0-5.0-0.0-45.0","","","[[""img/obj9.png"",""img/obj10.png"",0],[""img/obj1.png"",""img/obj3.png"",0],[""img/obj7.png"",0,""img/obj2.png""]]","","","1,2,1,1,1,4,2,2,6","70","","","","","","","","","","",""
"vsl-grid-scene-snap","51","192552","0.0-5.0-0.0-46.0","","","[[""img/obj8.png"",0,""img/obj6.png""],[""img/obj11.png"",""img/obj12.png"",0],[0,""img/obj9.png"",""img/obj10.png""]]","","","1,1,2,2,3,4,3,1,5","15","","","","","","","","","","",""
"vsl-grid-scene-snap","52","195560","0.0-5.0-0.0-47.0","","","[[""img/obj1.png"",0,""img/obj6.png""],[""img/obj7.png"",""img/obj12.png"",0],[0,""img/obj4.png"",""img/obj5.png""]]","","","1,1,1,2,3,3,3,1,5","12","","","","","","","","","","",""
"vsl-grid-attention-check","53","199575","0.0-5.0-1.0-0.0-0.0","","null","[[""img/square.png"",""img/square.png"",""img/square.png""],[""img/square.png"",""img/attention.png"",0],[""img/square.png"",0,0]]","","","","","null","","","","","","","","","",""
"vsl-grid-attention-check","54","202581","0.0-5.0-1.0-0.1-0.1","","null","[[""img/square.png"",0,0],[""img/square.png"",""img/attention.png"",""img/square.png""],[""img/square.png"",""img/square.png"",0]]","","","","","null","","","","","","","","","",""
"vsl-grid-attention-check","55","205584","0.0-5.0-1.0-0.2-0.2","","null","[[""img/square.png"",0,""img/square.png""],[""img/square.png"",""img/attention.png"",""img/square.png""],[0,""img/square.png"",0]]","","","","","null","","","","","","","","","",""
"vsl-grid-attention-check","56","208598","0.0-5.0-1.0-0.3-0.3","","null","[[""img/square.png"",""img/square.png"",""img/square.png""],[0,""img/attention.png"",""img/square.png""],[0,0,""img/square.png""]]","","","","","null","","","","","","","","","",""
"vsl-grid-attention-check","57","211612","0.0-5.0-1.0-0.4-0.4","","null","[[""img/square.png"",""img/square.png"",""img/square.png""],[0,""img/attention.png"",""img/square.png""],[0,""img/square.png"",0]]","","","","","null","","","","","","","","","",""
"vsl-grid-attention-check","58","214614","0.0-5.0-1.0-0.5-0.5","","null","[[""img/square.png"",""img/square.png"",0],[""img/square.png"",""img/attention.png"",""img/square.png""],[""img/square.png"",0,0]]","","","","","null","","","","","","","","","",""
"vsl-grid-attention-check","59","216720","0.0-5.0-1.0-0.6-0.6","","2105.300000011921","[[""img/square.png"",""img/square.png"",""img/square.png""],[""img/square.png"",""img/attention.png"",0],[""img/square.png"",0,0]]","","","","","32","","","","","","","","","",""
"html-keyboard-response","60","217737","0.0-5.0-1.0-1.0","","null"," ","","","","","null","","","","","","","","","",""
"vsl-grid-scene-snap","61","219747","0.0-5.0-2.0-0.0","","","[[""img/obj1.png"",""img/obj9.png"",""img/obj10.png""],[""img/obj7.png"",""img/obj6.png"",0],[""img/obj12.png"",0,0]]","","","1,1,1,2,1,4,2,2,5","6","","","","","","","","","","",""
"vsl-grid-scene-snap","62","222766","0.0-5.0-2.0-1.0","","","[[""img/obj3.png"",""img/obj4.png"",""img/obj5.png""],[0,""img/obj2.png"",""img/obj1.png""],[0,0,""img/obj7.png""]]","","","3,2,1,2,1,3,1,1,6","128","","","","","","","","","","",""
"vsl-grid-scene-snap","63","225785","0.0-5.0-2.0-2.0","","","[[""img/obj3.png"",0,0],[""img/obj1.png"",""img/obj2.png"",0],[""img/obj7.png"",""img/obj9.png"",""img/obj10.png""]]","","","1,2,1,2,3,4,1,1,6","58","","","","","","","","","","",""
"vsl-grid-scene-snap","64","228798","0.0-5.0-2.0-3.0","","","[[""img/obj4.png"",""img/obj5.png"",""img/obj1.png""],[""img/obj3.png"",0,""img/obj7.png""],[0,""img/obj2.png"",0]]","","","3,1,1,1,1,3,1,2,6","76","","","","","","","","","","",""
"vsl-grid-scene-snap","65","231816","0.0-5.0-2.0-4.0","","","[[""img/obj8.png"",""img/obj3.png"",0],[""img/obj11.png"",0,""img/obj2.png""],[0,""img/obj4.png"",""img/obj5.png""]]","","","1,1,2,2,3,3,2,1,6","21","","","","","","","","","","",""
"vsl-grid-scene-snap","66","234865","0.0-5.0-2.0-5.0","","","[[""img/obj3.png"",0,""img/obj8.png""],[0,""img/obj2.png"",""img/obj11.png""],[0,""img/obj4.png"",""img/obj5.png""]]","","","3,1,2,2,3,3,1,1,6","93","","","","","","","","","","",""
"vsl-grid-scene-snap","67","237866","0.0-5.0-2.0-6.0","","","[[""img/obj8.png"",""img/obj9.png"",""img/obj10.png""],[""img/obj11.png"",""img/obj6.png"",0],[""img/obj12.png"",0,0]]","","","1,1,2,2,1,4,2,2,5","7","","","","","","","","","","",""
"vsl-grid-scene-snap","68","240867","0.0-5.0-2.0-7.0","","","[[0,""img/obj9.png"",""img/obj10.png""],[""img/obj3.png"",0,""img/obj8.png""],[0,""img/obj2.png"",""img/obj11.png""]]","","","3,2,2,2,1,4,1,2,6","127","","","","","","","","","","",""
"vsl-grid-scene-snap","69","243881","0.0-5.0-2.0-8.0","","","[[""img/obj8.png"",""img/obj4.png"",""img/obj5.png""],[""img/obj11.png"",""img/obj6.png"",0],[""img/obj12.png"",0,0]]","","","1,1,2,2,1,3,2,2,5","5","","","","","","","","","","",""
"vsl-grid-scene-snap","70","246913","0.0-5.0-2.0-9.0","","","[[""img/obj9.png"",""img/obj10.png"",""img/obj1.png""],[""img/obj3.png"",0,""img/obj7.png""],[0,""img/obj2.png"",0]]","","","3,1,1,1,1,4,1,2,6","78","","","","","","","","","","",""
"vsl-grid-scene-snap","71","249928","0.0-5.0-2.0-10.0","","","[[0,0,""img/obj6.png""],[0,""img/obj12.png"",""img/obj8.png""],[""img/obj9.png"",""img/obj10.png"",""img/obj11.png""]]","","","3,2,2,1,3,4,3,1,5","143","","","","","","","","","","",""
"vsl-grid-scene-snap","72","252953","0.0-5.0-2.0-11.0","","","[[""img/obj8.png"",0,""img/obj6.png""],[""img/obj11.png"",""img/obj12.png"",0],[""img/obj4.png"",""img/obj5.png"",0]]","","","1,1,2,1,3,3,3,1,5","25","","","","","","","","","","",""
"vsl-grid-scene-snap","73","255970","0.0-5.0-2.0-12.0","","","[[""img/obj3.png"",""img/obj9.png"",""img/obj10.png""],[""img/obj1.png"",""img/obj2.png"",0],[""img/obj7.png"",0,0]]","","","1,2,1,2,1,4,1,1,6","42","","","","","","","","","","",""
"vsl-grid-scene-snap","74","258985","0.0-5.0-2.0-13.0","","","[[0,""img/obj6.png"",""img/obj8.png""],[""img/obj12.png"",0,""img/obj11.png""],[0,""img/obj4.png"",""img/obj5.png""]]","","","3,1,2,2,3,3,2,1,5","89","","","","","","","","","","",""
"vsl-grid-scene-snap","75","262006","0.0-5.0-2.0-14.0","","","[[""img/obj1.png"",0,0],[""img/obj7.png"",""img/obj3.png"",0],[""img/obj9.png"",""img/obj10.png"",""img/obj2.png""]]","","","1,1,1,1,3,4,2,2,6","34","","","","","","","","","","",""
"vsl-grid-scene-snap","76","265012","0.0-5.0-2.0-15.0","","","[[0,0,""img/obj1.png""],[0,""img/obj3.png"",""img/obj7.png""],[""img/obj9.png"",""img/obj10.png"",""img/obj2.png""]]","","","3,1,1,1,3,4,2,2,6","106","","","","","","","","","","",""
"vsl-grid-scene-snap","77","268036","0.0-5.0-2.0-16.0","","","[[""img/obj9.png"",""img/obj10.png"",""img/obj1.png""],[0,""img/obj3.png"",""img/obj7.png""],[0,0,""img/obj2.png""]]","","","3,1,1,1,1,4,2,2,6","82","","","","","","","","","","",""
"vsl-grid-scene-snap","78","271060","0.0-5.0-2.0-17.0","","","[[""img/obj3.png"",""img/obj4.png"",""img/obj5.png""],[""img/obj8.png"",""img/obj2.png"",0],[""img/obj11.png"",0,0]]","","","1,2,2,2,1,3,1,1,6","41","","","","","","","","","","",""
"vsl-grid-scene-snap","79","274091","0.0-5.0-2.0-18.0","","","[[""img/obj1.png"",""img/obj9.png"",""img/obj10.png""],[""img/obj7.png"",0,""img/obj6.png""],[0,""img/obj12.png"",0]]","","","1,1,1,2,1,4,3,2,5","2","","","","","","","","","","",""
"vsl-grid-scene-snap","80","277122","0.0-5.0-2.0-19.0","","","[[""img/obj1.png"",0,""img/obj6.png""],[""img/obj7.png"",""img/obj12.png"",0],[""img/obj9.png"",""img/obj10.png"",0]]","","","1,1,1,1,3,4,3,1,5","26","","","","","","","","","","",""
"vsl-grid-scene-snap","81","280140","0.0-5.0-2.0-20.0","","","[[""img/obj8.png"",0,""img/obj6.png""],[""img/obj11.png"",""img/obj12.png"",0],[0,""img/obj4.png"",""img/obj5.png""]]","","","1,1,2,2,3,3,3,1,5","13","","","","","","","","","","",""
"vsl-grid-scene-snap","82","283168","0.0-5.0-2.0-21.0","","","[[""img/obj4.png"",""img/obj5.png"",""img/obj1.png""],[0,""img/obj3.png"",""img/obj7.png""],[0,0,""img/obj2.png""]]","","","3,1,1,1,1,3,2,2,6","80","","","","","","","","","","",""
"vsl-grid-scene-snap","83","286197","0.0-5.0-2.0-22.0","","","[[""img/obj3.png"",0,0],[0,""img/obj2.png"",""img/obj1.png""],[""img/obj4.png"",""img/obj5.png"",""img/obj7.png""]]","","","3,2,1,1,3,3,1,1,6","136","","","","","","","","","","",""
"vsl-grid-scene-snap","84","289224","0.0-5.0-2.0-23.0","","","[[""img/obj3.png"",0,0],[""img/obj8.png"",""img/obj2.png"",0],[""img/obj11.png"",""img/obj9.png"",""img/obj10.png""]]","","","1,2,2,2,3,4,1,1,6","59","","","","","","","","","","",""
"vsl-grid-scene-snap","85","292251","0.0-5.0-2.0-24.0","","","[[""img/obj9.png"",""img/obj10.png"",""img/obj8.png""],[0,""img/obj3.png"",""img/obj11.png""],[0,0,""img/obj2.png""]]","","","3,1,2,1,1,4,2,2,6","83","","","","","","","","","","",""
"vsl-grid-scene-snap","86","295276","0.0-5.0-2.0-25.0","","","[[""img/obj3.png"",""img/obj4.png"",""img/obj5.png""],[0,""img/obj2.png"",""img/obj8.png""],[0,0,""img/obj11.png""]]","","","3,2,2,2,1,3,1,1,6","129","","","","","","","","","","",""
"vsl-grid-scene-snap","87","298296","0.0-5.0-2.0-26.0","","","[[0,""img/obj9.png"",""img/obj10.png""],[0,""img/obj6.png"",""img/obj1.png""],[""img/obj12.png"",0,""img/obj7.png""]]","","","3,2,1,2,1,4,2,2,5","122","","","","","","","","","","",""
"vsl-grid-scene-snap","88","301310","0.0-5.0-2.0-27.0","","","[[""img/obj3.png"",0,0],[0,""img/obj2.png"",""img/obj8.png""],[""img/obj4.png"",""img/obj5.png"",""img/obj11.png""]]","","","3,2,2,1,3,3,1,1,6","137","","","","","","","","","","",""
"vsl-grid-scene-snap","89","304329","0.0-5.0-2.0-28.0","","","[[""img/obj8.png"",""img/obj3.png"",0],[""img/obj11.png"",0,""img/obj2.png""],[""img/obj4.png"",""img/obj5.png"",0]]","","","1,1,2,1,3,3,2,1,6","29","","","","","","","","","","",""
"vsl-grid-scene-snap","90","307340","0.0-5.0-2.0-29.0","","","[[0,""img/obj6.png"",""img/obj8.png""],[""img/obj12.png"",0,""img/obj11.png""],[""img/obj4.png"",""img/obj5.png"",0]]","","","3,1,2,1,3,3,2,1,5","97","","","","","","","","","","",""
"vsl-grid-scene-snap","91","310346","0.0-5.0-2.0-30.0","","","[[0,0,""img/obj6.png""],[""img/obj8.png"",""img/obj12.png"",0],[""img/obj11.png"",""img/obj9.png"",""img/obj10.png""]]","","","1,2,2,2,3,4,3,1,5","51","","","","","","","","","","",""
"vsl-grid-scene-snap","92","313370","0.0-5.0-2.0-31.0","","","[[""img/obj9.png"",""img/obj10.png"",""img/obj6.png""],[0,""img/obj12.png"",""img/obj8.png""],[0,0,""img/obj11.png""]]","","","3,2,2,1,1,4,3,1,5","119","","","","","","","","","","",""
"vsl-grid-scene-snap","93","316377","0.0-5.0-2.0-32.0","","","[[""img/obj3.png"",0,""img/obj1.png""],[0,""img/obj2.png"",""img/obj7.png""],[""img/obj9.png"",""img/obj10.png"",0]]","","","3,1,1,1,3,4,1,1,6","102","","","","","","","","","","",""
"vsl-grid-scene-snap","94","319388","0.0-5.0-2.0-33.0","","","[[0,""img/obj3.png"",0],[""img/obj1.png"",0,""img/obj2.png""],[""img/obj7.png"",""img/obj4.png"",""img/obj5.png""]]","","","1,2,1,2,3,3,2,1,6","52","","","","","","","","","","",""
"vsl-grid-scene-snap","95","322404","0.0-5.0-2.0-34.0","","","[[""img/obj9.png"",""img/obj10.png"",""img/obj6.png""],[""img/obj1.png"",""img/obj12.png"",0],[""img/obj7.png"",0,0]]","","","1,2,1,1,1,4,3,1,5","66","","","","","","","","","","",""
"vsl-grid-scene-snap","96","325420","0.0-5.0-2.0-35.0","","","[[""img/obj1.png"",""img/obj4.png"",""img/obj5.png""],[""img/obj7.png"",""img/obj6.png"",0],[""img/obj12.png"",0,0]]","","","1,1,1,2,1,3,2,2,5","4","","","","","","","","","","",""
"vsl-grid-scene-snap","97","328436","0.0-5.0-2.0-36.0","","","[[""img/obj1.png"",""img/obj3.png"",0],[""img/obj7.png"",0,""img/obj2.png""],[""img/obj4.png"",""img/obj5.png"",0]]","","","1,1,1,1,3,3,2,1,6","28","","","","","","","","","","",""
"vsl-grid-scene-snap","98","331459","0.0-5.0-2.0-37.0","","","[[""img/obj3.png"",0,""img/obj8.png""],[0,""img/obj2.png"",""img/obj11.png""],[""img/obj4.png"",""img/obj5.png"",0]]","","","3,1,2,1,3,3,1,1,6","101","","","","","","","","","","",""
"vsl-grid-scene-snap","99","334474","0.0-5.0-2.0-38.0","","","[[""img/obj8.png"",""img/obj9.png"",""img/obj10.png""],[""img/obj11.png"",0,""img/obj6.png""],[0,""img/obj12.png"",0]]","","","1,1,2,2,1,4,3,2,5","3","","","","","","","","","","",""
"vsl-grid-scene-snap","100","337490","0.0-5.0-2.0-39.0","","","[[""img/obj9.png"",""img/obj10.png"",0],[""img/obj3.png"",0,""img/obj8.png""],[0,""img/obj2.png"",""img/obj11.png""]]","","","3,2,2,1,1,4,1,2,6","115","","","","","","","","","","",""
"vsl-grid-scene-snap","101","340507","0.0-5.0-2.0-40.0","","","[[""img/obj4.png"",""img/obj5.png"",""img/obj8.png""],[""img/obj3.png"",0,""img/obj11.png""],[0,""img/obj2.png"",0]]","","","3,1,2,1,1,3,1,2,6","77","","","","","","","","","","",""
"vsl-grid-scene-snap","102","343523","0.0-5.0-2.0-41.0","","","[[""img/obj1.png"",""img/obj3.png"",0],[""img/obj7.png"",0,""img/obj2.png""],[0,""img/obj4.png"",""img/obj5.png""]]","","","1,1,1,2,3,3,2,1,6","20","","","","","","","","","","",""
"vsl-grid-scene-snap","103","346546","0.0-5.0-2.0-42.0","","","[[""img/obj1.png"",""img/obj3.png"",0],[""img/obj7.png"",0,""img/obj2.png""],[""img/obj9.png"",""img/obj10.png"",0]]","","","1,1,1,1,3,4,2,1,6","30","","","","","","","","","","",""
"vsl-grid-scene-snap","104","349562","0.0-5.0-2.0-43.0","","","[[0,0,""img/obj6.png""],[""img/obj8.png"",""img/obj12.png"",0],[""img/obj11.png"",""img/obj4.png"",""img/obj5.png""]]","","","1,2,2,2,3,3,3,1,5","49","","","","","","","","","","",""
"vsl-grid-scene-snap","105","352577","0.0-5.0-2.0-44.0","","","[[0,""img/obj3.png"",0],[""img/obj8.png"",0,""img/obj2.png""],[""img/obj11.png"",""img/obj4.png"",""img/obj5.png""]]","","","1,2,2,2,3,3,2,1,6","53","","","","","","","","","","",""
"vsl-grid-scene-snap","106","355596","0.0-5.0-2.0-45.0","","","[[""img/obj9.png"",""img/obj10.png"",0],[""img/obj8.png"",""img/obj3.png"",0],[""img/obj11.png"",0,""img/obj2.png""]]","","","1,2,2,1,1,4,2,2,6","71","","","","","","","","","","",""
"vsl-grid-scene-snap","107","358616","0.0-5.0-2.0-46.0","","","[[""img/obj8.png"",""img/obj3.png"",0],[""img/obj11.png"",0,""img/obj2.png""],[0,""img/obj9.png"",""img/obj10.png""]]","","","1,1,2,2,3,4,2,1,6","23","","","","","","","","","","",""
"vsl-grid-scene-snap","108","361626","0.0-5.0-2.0-47.0","","","[[""img/obj3.png"",0,""img/obj1.png""],[0,""img/obj2.png"",""img/obj7.png""],[0,""img/obj4.png"",""img/obj5.png""]]","","","3,1,1,2,3,3,1,1,6","92","","","","","","","","","","",""
"vsl-grid-attention-check","109","365638","0.0-5.0-3.0-0.0-0.0","","null","[[""img/square.png"",""img/square.png"",""img/square.png""],[""img/square.png"",""img/attention.png"",0],[0,0,""img/square.png""]]","","","","","null","","","","","","","","","",""
"vsl-grid-attention-check","110","368646","0.0-5.0-3.0-0.1-0.1","","null","[[""img/square.png"",""img/square.png"",""img/square.png""],[""img/square.png"",""img/attention.png"",""img/square.png""],[0,0,0]]","","","","","null","","","","","","","","","",""
"vsl-grid-attention-check","111","371648","0.0-5.0-3.0-0.2-0.2","","null","[[""img/square.png"",0,""img/square.png""],[""img/square.png"",""img/attention.png"",0],[""img/square.png"",0,""img/square.png""]]","","","","","null","","","","","","","","","",""
"vsl-grid-attention-check","112","374660","0.0-5.0-3.0-0.3-0.3","","null","[[""img/square.png"",0,""img/square.png""],[""img/square.png"",""img/attention.png"",""img/square.png""],[""img/square.png"",0,0]]","","","","","null","","","","","","","","","",""
"vsl-grid-attention-check","113","377670","0.0-5.0-3.0-0.4-0.4","","null","[[""img/square.png"",""img/square.png"",""img/square.png""],[0,""img/attention.png"",""img/square.png""],[""img/square.png"",0,0]]","","","","","null","","","","","","","","","",""
"vsl-grid-attention-check","114","379282","0.0-5.0-3.0-0.5-0.5","","1610.4000000357628","[[0,""img/square.png"",""img/square.png""],[0,""img/attention.png"",0],[""img/square.png"",""img/square.png"",""img/square.png""]]","","","","","32","","","","","","","","","",""
"html-keyboard-response","115","380298","0.0-5.0-3.0-1.0","","null"," ","","","","","null","","","","","","","","","",""
"vsl-grid-scene-snap","116","382313","0.0-5.0-4.0-0.0","","","[[0,""img/obj6.png"",0],[""img/obj12.png"",0,""img/obj8.png""],[""img/obj4.png"",""img/obj5.png"",""img/obj11.png""]]","","","3,2,2,1,3,3,2,1,5","133","","","","","","","","","","",""
"vsl-grid-scene-snap","117","385318","0.0-5.0-4.0-1.0","","","[[""img/obj3.png"",0,0],[0,""img/obj2.png"",""img/obj1.png""],[""img/obj9.png"",""img/obj10.png"",""img/obj7.png""]]","","","3,2,1,1,3,4,1,1,6","138","","","","","","","","","","",""
"vsl-grid-scene-snap","118","388336","0.0-5.0-4.0-2.0","","","[[0,""img/obj6.png"",0],[""img/obj12.png"",0,""img/obj1.png""],[""img/obj9.png"",""img/obj10.png"",""img/obj7.png""]]","","","3,2,1,1,3,4,2,1,5","134","","","","","","","","","","",""
"vsl-grid-scene-snap","119","391359","0.0-5.0-4.0-3.0","","","[[""img/obj1.png"",0,0],[""img/obj7.png"",""img/obj3.png"",0],[""img/obj4.png"",""img/obj5.png"",""img/obj2.png""]]","","","1,1,1,1,3,3,2,2,6","32","","","","","","","","","","",""
"vsl-grid-scene-snap","120","394365","0.0-5.0-4.0-4.0","","","[[0,0,""img/obj8.png""],[0,""img/obj6.png"",""img/obj11.png""],[""img/obj12.png"",""img/obj4.png"",""img/obj5.png""]]","","","3,1,2,2,3,3,2,2,5","85","","","","","","","","","","",""
"vsl-grid-scene-snap","121","397378","0.0-5.0-4.0-5.0","","","[[""img/obj4.png"",""img/obj5.png"",0],[""img/obj1.png"",""img/obj3.png"",0],[""img/obj7.png"",0,""img/obj2.png""]]","","","1,2,1,1,1,3,2,2,6","68","","","","","","","","","","",""
"vsl-grid-scene-snap","122","400395","0.0-5.0-4.0-6.0","","","[[""img/obj1.png"",""img/obj4.png"",""img/obj5.png""],[""img/obj7.png"",""img/obj3.png"",0],[0,0,""img/obj2.png""]]","","","1,1,1,2,1,3,2,2,6","8","","","","","","","","","","",""
"vsl-grid-scene-snap","123","403411","0.0-5.0-4.0-7.0","","","[[0,""img/obj6.png"",0],[""img/obj12.png"",0,""img/obj8.png""],[""img/obj9.png"",""img/obj10.png"",""img/obj11.png""]]","","","3,2,2,1,3,4,2,1,5","135","","","","","","","","","","",""
"vsl-grid-scene-snap","124","406425","0.0-5.0-4.0-8.0","","","[[""img/obj9.png"",""img/obj10.png"",0],[0,""img/obj6.png"",""img/obj1.png""],[""img/obj12.png"",0,""img/obj7.png""]]","","","3,2,1,1,1,4,2,2,5","110","","","","","","","","","","",""
"vsl-grid-scene-snap","125","409437","0.0-5.0-4.0-9.0","","","[[""img/obj1.png"",""img/obj9.png"",""img/obj10.png""],[""img/obj7.png"",""img/obj3.png"",0],[0,0,""img/obj2.png""]]","","","1,1,1,2,1,4,2,2,6","10","","","","","","","","","","",""
"vsl-grid-scene-snap","126","412443","0.0-5.0-4.0-10.0","","","[[""img/obj9.png"",""img/obj10.png"",0],[""img/obj3.png"",0,""img/obj1.png""],[0,""img/obj2.png"",""img/obj7.png""]]","","","3,2,1,1,1,4,1,2,6","114","","","","","","","","","","",""
"vsl-grid-scene-snap","127","415445","0.0-5.0-4.0-11.0","","","[[""img/obj8.png"",0,0],[""img/obj11.png"",""img/obj3.png"",0],[""img/obj4.png"",""img/obj5.png"",""img/obj2.png""]]","","","1,1,2,1,3,3,2,2,6","33","","","","","","","","","","",""
"vsl-grid-scene-snap","128","418472","0.0-5.0-4.0-12.0","","","[[""img/obj1.png"",0,""img/obj6.png""],[""img/obj7.png"",""img/obj12.png"",0],[""img/obj4.png"",""img/obj5.png"",0]]","","","1,1,1,1,3,3,3,1,5","24","","","","","","","","","","",""
"vsl-grid-scene-snap","129","421496","0.0-5.0-4.0-13.0","","","[[0,0,""img/obj6.png""],[0,""img/obj12.png"",""img/obj8.png""],[""img/obj4.png"",""img/obj5.png"",""img/obj11.png""]]","","","3,2,2,1,3,3,3,1,5","141","","","","","","","","","","",""
"vsl-grid-scene-snap","130","424507","0.0-5.0-4.0-14.0","","","[[""img/obj1.png"",0,""img/obj6.png""],[""img/obj7.png"",""img/obj12.png"",0],[0,""img/obj9.png"",""img/obj10.png""]]","","","1,1,1,2,3,4,3,1,5","14","","","","","","","","","","",""
"vsl-grid-scene-snap","131","427521","0.0-5.0-4.0-15.0","","","[[""img/obj3.png"",0,""img/obj8.png""],[0,""img/obj2.png"",""img/obj11.png""],[""img/obj9.png"",""img/obj10.png"",0]]","","","3,1,2,1,3,4,1,1,6","103","","","","","","","","","","",""
"vsl-grid-scene-snap","132","431078","0.0-5.0-4.0-16.0","","","[[""img/obj3.png"",""img/obj9.png"",""img/obj10.png""],[0,""img/obj2.png"",""img/obj8.png""],[0,0,""img/obj11.png""]]","","","3,2,2,2,1,4,1,1,6","131","","","","","","","","","","",""
"vsl-grid-scene-snap","133","436106","0.0-5.0-4.0-17.0","","","[[0,0,""img/obj6.png""],[""img/obj1.png"",""img/obj12.png"",0],[""img/obj7.png"",""img/obj4.png"",""img/obj5.png""]]","","","1,2,1,2,3,3,3,1,5","48","","","","","","","","","","",""
"vsl-grid-scene-snap","134","440073","0.0-5.0-4.0-18.0","","","[[""img/obj4.png"",""img/obj5.png"",""img/obj6.png""],[0,""img/obj12.png"",""img/obj8.png""],[0,0,""img/obj11.png""]]","","","3,2,2,1,1,3,3,1,5","117","","","","","","","","","","",""
"vsl-grid-scene-snap","135","443075","0.0-5.0-4.0-19.0","","","[[""img/obj4.png"",""img/obj5.png"",0],[""img/obj3.png"",0,""img/obj8.png""],[0,""img/obj2.png"",""img/obj11.png""]]","","","3,2,2,1,1,3,1,2,6","113","","","","","","","","","","",""
"vsl-grid-scene-snap","136","448067","0.0-5.0-4.0-20.0","","","[[0,""img/obj9.png"",""img/obj10.png""],[""img/obj3.png"",0,""img/obj1.png""],[0,""img/obj2.png"",""img/obj7.png""]]","","","3,2,1,2,1,4,1,2,6","126","","","","","","","","","","",""
"vsl-grid-scene-snap","137","451393","0.0-5.0-4.0-21.0","","","[[""img/obj4.png"",""img/obj5.png"",""img/obj1.png""],[0,""img/obj6.png"",""img/obj7.png""],[""img/obj12.png"",0,0]]","","","3,1,1,1,1,3,2,2,5","72","","","","","","","","","","",""
"vsl-grid-scene-snap","138","454709","0.0-5.0-4.0-22.0","","","[[""img/obj4.png"",""img/obj5.png"",""img/obj8.png""],[0,""img/obj3.png"",""img/obj11.png""],[0,0,""img/obj2.png""]]","","","3,1,2,1,1,3,2,2,6","81","","","","","","","","","","",""
"vsl-grid-scene-snap","139","457729","0.0-5.0-4.0-23.0","","","[[""img/obj9.png"",""img/obj10.png"",0],[""img/obj8.png"",0,""img/obj6.png""],[""img/obj11.png"",""img/obj12.png"",0]]","","","1,2,2,1,1,4,3,2,5","63","","","","","","","","","","",""
"vsl-grid-scene-snap","140","460739","0.0-5.0-4.0-24.0","","","[[0,""img/obj3.png"",0],[""img/obj1.png"",0,""img/obj2.png""],[""img/obj7.png"",""img/obj9.png"",""img/obj10.png""]]","","","1,2,1,2,3,4,2,1,6","54","","","","","","","","","","",""
"vsl-grid-scene-snap","141","463743","0.0-5.0-4.0-25.0","","","[[0,""img/obj6.png"",""img/obj1.png""],[""img/obj12.png"",0,""img/obj7.png""],[0,""img/obj4.png"",""img/obj5.png""]]","","","3,1,1,2,3,3,2,1,5","88","","","","","","","","","","",""
"vsl-grid-scene-snap","142","466762","0.0-5.0-4.0-26.0","","","[[""img/obj3.png"",0,0],[""img/obj8.png"",""img/obj2.png"",0],[""img/obj11.png"",""img/obj4.png"",""img/obj5.png""]]","","","1,2,2,2,3,3,1,1,6","57","","","","","","","","","","",""
"vsl-grid-scene-snap","143","469767","0.0-5.0-4.0-27.0","","","[[""img/obj3.png"",""img/obj9.png"",""img/obj10.png""],[0,""img/obj2.png"",""img/obj1.png""],[0,0,""img/obj7.png""]]","","","3,2,1,2,1,4,1,1,6","130","","","","","","","","","","",""
"vsl-grid-scene-snap","144","472770","0.0-5.0-4.0-28.0","","","[[0,""img/obj4.png"",""img/obj5.png""],[0,""img/obj6.png"",""img/obj8.png""],[""img/obj12.png"",0,""img/obj11.png""]]","","","3,2,2,2,1,3,2,2,5","121","","","","","","","","","","",""
"vsl-grid-scene-snap","145","475789","0.0-5.0-4.0-29.0","","","[[0,""img/obj6.png"",""img/obj1.png""],[""img/obj12.png"",0,""img/obj7.png""],[""img/obj4.png"",""img/obj5.png"",0]]","","","3,1,1,1,3,3,2,1,5","96","","","","","","","","","","",""
"vsl-grid-scene-snap","146","478805","0.0-5.0-4.0-30.0","","","[[""img/obj4.png"",""img/obj5.png"",""img/obj6.png""],[""img/obj1.png"",""img/obj12.png"",0],[""img/obj7.png"",0,0]]","","","1,2,1,1,1,3,3,1,5","64","","","","","","","","","","",""
"vsl-grid-scene-snap","147","481810","0.0-5.0-4.0-31.0","","","[[""img/obj9.png"",""img/obj10.png"",""img/obj8.png""],[""img/obj3.png"",0,""img/obj11.png""],[0,""img/obj2.png"",0]]","","","3,1,2,1,1,4,1,2,6","79","","","","","","","","","","",""
"vsl-grid-scene-snap","148","484821","0.0-5.0-4.0-32.0","","","[[""img/obj4.png"",""img/obj5.png"",""img/obj6.png""],[0,""img/obj12.png"",""img/obj1.png""],[0,0,""img/obj7.png""]]","","","3,2,1,1,1,3,3,1,5","116","","","","","","","","","","",""
"vsl-grid-scene-snap","149","487846","0.0-5.0-4.0-33.0","","","[[0,0,""img/obj8.png""],[0,""img/obj3.png"",""img/obj11.png""],[""img/obj4.png"",""img/obj5.png"",""img/obj2.png""]]","","","3,1,2,1,3,3,2,2,6","105","","","","","","","","","","",""
"vsl-grid-scene-snap","150","490863","0.0-5.0-4.0-34.0","","","[[0,0,""img/obj1.png""],[0,""img/obj6.png"",""img/obj7.png""],[""img/obj12.png"",""img/obj9.png"",""img/obj10.png""]]","","","3,1,1,2,3,4,2,2,5","86","","","","","","","","","","",""
"vsl-grid-scene-snap","151","493890","0.0-5.0-4.0-35.0","","","[[0,""img/obj4.png"",""img/obj5.png""],[""img/obj3.png"",0,""img/obj8.png""],[0,""img/obj2.png"",""img/obj11.png""]]","","","3,2,2,2,1,3,1,2,6","125","","","","","","","","","","",""
"vsl-grid-scene-snap","152","496901","0.0-5.0-4.0-36.0","","","[[0,""img/obj4.png"",""img/obj5.png""],[""img/obj8.png"",""img/obj3.png"",0],[""img/obj11.png"",0,""img/obj2.png""]]","","","1,2,2,2,1,3,2,2,6","45","","","","","","","","","","",""
"vsl-grid-scene-snap","153","499918","0.0-5.0-4.0-37.0","","","[[""img/obj8.png"",0,0],[""img/obj11.png"",""img/obj6.png"",0],[""img/obj12.png"",""img/obj4.png"",""img/obj5.png""]]","","","1,1,2,2,3,3,2,2,5","17","","","","","","","","","","",""
"vsl-grid-scene-snap","154","502947","0.0-5.0-4.0-38.0","","","[[0,""img/obj9.png"",""img/obj10.png""],[0,""img/obj6.png"",""img/obj8.png""],[""img/obj12.png"",0,""img/obj11.png""]]","","","3,2,2,2,1,4,2,2,5","123","","","","","","","","","","",""
"vsl-grid-scene-snap","155","505963","0.0-5.0-4.0-39.0","","","[[""img/obj3.png"",0,0],[""img/obj1.png"",""img/obj2.png"",0],[""img/obj7.png"",""img/obj4.png"",""img/obj5.png""]]","","","1,2,1,2,3,3,1,1,6","56","","","","","","","","","","",""
"vsl-grid-scene-snap","156","508969","0.0-5.0-4.0-40.0","","","[[0,0,""img/obj1.png""],[0,""img/obj6.png"",""img/obj7.png""],[""img/obj12.png"",""img/obj4.png"",""img/obj5.png""]]","","","3,1,1,2,3,3,2,2,5","84","","","","","","","","","","",""
"vsl-grid-scene-snap","157","511991","0.0-5.0-4.0-41.0","","","[[""img/obj3.png"",""img/obj4.png"",""img/obj5.png""],[""img/obj1.png"",""img/obj2.png"",0],[""img/obj7.png"",0,0]]","","","1,2,1,2,1,3,1,1,6","40","","","","","","","","","","",""
"vsl-grid-scene-snap","158","515005","0.0-5.0-4.0-42.0","","","[[0,""img/obj9.png"",""img/obj10.png""],[""img/obj1.png"",""img/obj3.png"",0],[""img/obj7.png"",0,""img/obj2.png""]]","","","1,2,1,2,1,4,2,2,6","46","","","","","","","","","","",""
"vsl-grid-scene-snap","159","518018","0.0-5.0-4.0-43.0","","","[[0,""img/obj3.png"",0],[""img/obj8.png"",0,""img/obj2.png""],[""img/obj11.png"",""img/obj9.png"",""img/obj10.png""]]","","","1,2,2,2,3,4,2,1,6","55","","","","","","","","","","",""
"vsl-grid-scene-snap","160","521030","0.0-5.0-4.0-44.0","","","[[""img/obj4.png"",""img/obj5.png"",""img/obj8.png""],[0,""img/obj6.png"",""img/obj11.png""],[""img/obj12.png"",0,0]]","","","3,1,2,1,1,3,2,2,5","73","","","","","","","","","","",""
"vsl-grid-scene-snap","161","524036","0.0-5.0-4.0-45.0","","","[[0,0,""img/obj6.png""],[0,""img/obj12.png"",""img/obj1.png""],[""img/obj4.png"",""img/obj5.png"",""img/obj7.png""]]","","","3,2,1,1,3,3,3,1,5","140","","","","","","","","","","",""
"vsl-grid-scene-snap","162","527052","0.0-5.0-4.0-46.0","","","[[""img/obj9.png"",""img/obj10.png"",""img/obj6.png""],[0,""img/obj12.png"",""img/obj1.png""],[0,0,""img/obj7.png""]]","","","3,2,1,1,1,4,3,1,5","118","","","","","","","","","","",""
"vsl-grid-scene-snap","163","530074","0.0-5.0-4.0-47.0","","","[[0,0,""img/obj6.png""],[0,""img/obj12.png"",""img/obj1.png""],[""img/obj9.png"",""img/obj10.png"",""img/obj7.png""]]","","","3,2,1,1,3,4,3,1,5","142","","","","","","","","","","",""
"vsl-grid-attention-check","164","534092","0.0-5.0-5.0-0.0-0.0","","null","[[0,0,""img/square.png""],[0,""img/attention.png"",""img/square.png""],[""img/square.png"",""img/square.png"",""img/square.png""]]","","","","","null","","","","","","","","","",""
"vsl-grid-attention-check","165","536874","0.0-5.0-5.0-0.1-0.1","","2780.899999976158","[[""img/square.png"",""img/square.png"",0],[""img/square.png"",""img/attention.png"",""img/square.png""],[0,0,""img/square.png""]]","","","","","32","","","","","","","","","",""
"html-keyboard-response","166","537877","0.0-5.0-5.0-1.0","","null"," ","","","","","null","","","","","","","","","",""
"vsl-grid-scene-snap","167","539888","0.0-5.0-6.0-0.0","","","[[0,""img/obj4.png"",""img/obj5.png""],[""img/obj3.png"",0,""img/obj1.png""],[0,""img/obj2.png"",""img/obj7.png""]]","","","3,2,1,2,1,3,1,2,6","124","","","","","","","","","","",""
"vsl-grid-scene-snap","168","542908","0.0-5.0-6.0-1.0","","","[[""img/obj1.png"",0,0],[""img/obj7.png"",""img/obj6.png"",0],[""img/obj12.png"",""img/obj9.png"",""img/obj10.png""]]","","","1,1,1,2,3,4,2,2,5","18","","","","","","","","","","",""
"vsl-grid-scene-snap","169","545911","0.0-5.0-6.0-2.0","","","[[0,""img/obj6.png"",""img/obj1.png""],[""img/obj12.png"",0,""img/obj7.png""],[0,""img/obj9.png"",""img/obj10.png""]]","","","3,1,1,2,3,4,2,1,5","90","","","","","","","","","","",""
"vsl-grid-scene-snap","170","548932","0.0-5.0-6.0-3.0","","","[[""img/obj8.png"",""img/obj9.png"",""img/obj10.png""],[""img/obj11.png"",""img/obj3.png"",0],[0,0,""img/obj2.png""]]","","","1,1,2,2,1,4,2,2,6","11","","","","","","","","","","",""
"vsl-grid-scene-snap","171","551954","0.0-5.0-6.0-4.0","","","[[0,""img/obj4.png"",""img/obj5.png""],[""img/obj1.png"",""img/obj3.png"",0],[""img/obj7.png"",0,""img/obj2.png""]]","","","1,2,1,2,1,3,2,2,6","44","","","","","","","","","","",""
"vsl-grid-scene-snap","172","554985","0.0-5.0-6.0-5.0","","","[[""img/obj4.png"",""img/obj5.png"",0],[0,""img/obj6.png"",""img/obj1.png""],[""img/obj12.png"",0,""img/obj7.png""]]","","","3,2,1,1,1,3,2,2,5","108","","","","","","","","","","",""
"vsl-grid-scene-snap","173","558012","0.0-5.0-6.0-6.0","","","[[0,0,""img/obj6.png""],[""img/obj1.png"",""img/obj12.png"",0],[""img/obj7.png"",""img/obj9.png"",""img/obj10.png""]]","","","1,2,1,2,3,4,3,1,5","50","","","","","","","","","","",""
"vsl-grid-scene-snap","174","561030","0.0-5.0-6.0-7.0","","","[[""img/obj8.png"",""img/obj3.png"",0],[""img/obj11.png"",0,""img/obj2.png""],[""img/obj9.png"",""img/obj10.png"",0]]","","","1,1,2,1,3,4,2,1,6","31","","","","","","","","","","",""
"vsl-grid-scene-snap","175","564054","0.0-5.0-6.0-8.0","","","[[0,""img/obj6.png"",""img/obj8.png""],[""img/obj12.png"",0,""img/obj11.png""],[""img/obj9.png"",""img/obj10.png"",0]]","","","3,1,2,1,3,4,2,1,5","99","","","","","","","","","","",""
"vsl-grid-scene-snap","176","567069","0.0-5.0-6.0-9.0","","","[[0,0,""img/obj8.png""],[0,""img/obj3.png"",""img/obj11.png""],[""img/obj9.png"",""img/obj10.png"",""img/obj2.png""]]","","","3,1,2,1,3,4,2,2,6","107","","","","","","","","","","",""
"vsl-grid-scene-snap","177","570079","0.0-5.0-6.0-10.0","","","[[""img/obj9.png"",""img/obj10.png"",0],[""img/obj1.png"",0,""img/obj6.png""],[""img/obj7.png"",""img/obj12.png"",0]]","","","1,2,1,1,1,4,3,2,5","62","","","","","","","","","","",""
"vsl-grid-scene-snap","178","573096","0.0-5.0-6.0-11.0","","","[[""img/obj4.png"",""img/obj5.png"",0],[0,""img/obj6.png"",""img/obj8.png""],[""img/obj12.png"",0,""img/obj11.png""]]","","","3,2,2,1,1,3,2,2,5","109","","","","","","","","","","",""
"vsl-grid-scene-snap","179","576101","0.0-5.0-6.0-12.0","","","[[""img/obj4.png"",""img/obj5.png"",0],[""img/obj1.png"",0,""img/obj6.png""],[""img/obj7.png"",""img/obj12.png"",0]]","","","1,2,1,1,1,3,3,2,5","60","","","","","","","","","","",""
"vsl-grid-scene-snap","180","579117","0.0-5.0-6.0-13.0","","","[[""img/obj1.png"",0,0],[""img/obj7.png"",""img/obj6.png"",0],[""img/obj12.png"",""img/obj4.png"",""img/obj5.png""]]","","","1,1,1,2,3,3,2,2,5","16","","","","","","","","","","",""
"vsl-grid-scene-snap","181","582121","0.0-5.0-6.0-14.0","","","[[""img/obj4.png"",""img/obj5.png"",0],[""img/obj3.png"",0,""img/obj1.png""],[0,""img/obj2.png"",""img/obj7.png""]]","","","3,2,1,1,1,3,1,2,6","112","","","","","","","","","","",""
"vsl-grid-scene-snap","182","585133","0.0-5.0-6.0-15.0","","","[[""img/obj8.png"",0,0],[""img/obj11.png"",""img/obj3.png"",0],[""img/obj9.png"",""img/obj10.png"",""img/obj2.png""]]","","","1,1,2,1,3,4,2,2,6","35","","","","","","","","","","",""
"vsl-grid-scene-snap","183","588150","0.0-5.0-6.0-16.0","","","[[""img/obj8.png"",""img/obj4.png"",""img/obj5.png""],[""img/obj11.png"",0,""img/obj6.png""],[0,""img/obj12.png"",0]]","","","1,1,2,2,1,3,3,2,5","1","","","","","","","","","","",""
"vsl-grid-scene-snap","184","591161","0.0-5.0-6.0-17.0","","","[[0,""img/obj4.png"",""img/obj5.png""],[0,""img/obj6.png"",""img/obj1.png""],[""img/obj12.png"",0,""img/obj7.png""]]","","","3,2,1,2,1,3,2,2,5","120","","","","","","","","","","",""
"vsl-grid-scene-snap","185","594180","0.0-5.0-6.0-18.0","","","[[""img/obj9.png"",""img/obj10.png"",""img/obj6.png""],[""img/obj8.png"",""img/obj12.png"",0],[""img/obj11.png"",0,0]]","","","1,2,2,1,1,4,3,1,5","67","","","","","","","","","","",""
"vsl-grid-scene-snap","186","597200","0.0-5.0-6.0-19.0","","","[[""img/obj1.png"",""img/obj3.png"",0],[""img/obj7.png"",0,""img/obj2.png""],[0,""img/obj9.png"",""img/obj10.png""]]","","","1,1,1,2,3,4,2,1,6","22","","","","","","","","","","",""
"vsl-grid-scene-snap","187","600211","0.0-5.0-6.0-20.0","","","[[""img/obj3.png"",0,""img/obj1.png""],[0,""img/obj2.png"",""img/obj7.png""],[""img/obj4.png"",""img/obj5.png"",0]]","","","3,1,1,1,3,3,1,1,6","100","","","","","","","","","","",""
"vsl-grid-scene-snap","188","603229","0.0-5.0-6.0-21.0","","","[[0,""img/obj6.png"",""img/obj1.png""],[""img/obj12.png"",0,""img/obj7.png""],[""img/obj9.png"",""img/obj10.png"",0]]","","","3,1,1,1,3,4,2,1,5","98","","","","","","","","","","",""
"vsl-grid-scene-snap","189","606234","0.0-5.0-6.0-22.0","","","[[0,""img/obj6.png"",0],[""img/obj12.png"",0,""img/obj1.png""],[""img/obj4.png"",""img/obj5.png"",""img/obj7.png""]]","","","3,2,1,1,3,3,2,1,5","132","","","","","","","","","","",""
"vsl-grid-scene-snap","190","609242","0.0-5.0-6.0-23.0","","","[[""img/obj9.png"",""img/obj10.png"",""img/obj8.png""],[0,""img/obj6.png"",""img/obj11.png""],[""img/obj12.png"",0,0]]","","","3,1,2,1,1,4,2,2,5","75","","","","","","","","","","",""
"vsl-grid-scene-snap","191","612262","0.0-5.0-6.0-24.0","","","[[""img/obj4.png"",""img/obj5.png"",0],[""img/obj8.png"",0,""img/obj6.png""],[""img/obj11.png"",""img/obj12.png"",0]]","","","1,2,2,1,1,3,3,2,5","61","","","","","","","","","","",""
"vsl-grid-scene-snap","192","615278","0.0-5.0-6.0-25.0","","","[[""img/obj3.png"",0,""img/obj1.png""],[0,""img/obj2.png"",""img/obj7.png""],[0,""img/obj9.png"",""img/obj10.png""]]","","","3,1,1,2,3,4,1,1,6","94","","","","","","","","","","",""
"vsl-grid-scene-snap","193","618294","0.0-5.0-6.0-26.0","","","[[0,""img/obj6.png"",""img/obj8.png""],[""img/obj12.png"",0,""img/obj11.png""],[0,""img/obj9.png"",""img/obj10.png""]]","","","3,1,2,2,3,4,2,1,5","91","","","","","","","","","","",""
"vsl-grid-scene-snap","194","621312","0.0-5.0-6.0-27.0","","","[[""img/obj9.png"",""img/obj10.png"",""img/obj1.png""],[0,""img/obj6.png"",""img/obj7.png""],[""img/obj12.png"",0,0]]","","","3,1,1,1,1,4,2,2,5","74","","","","","","","","","","",""
"vsl-grid-scene-snap","195","624334","0.0-5.0-6.0-28.0","","","[[""img/obj4.png"",""img/obj5.png"",""img/obj6.png""],[""img/obj8.png"",""img/obj12.png"",0],[""img/obj11.png"",0,0]]","","","1,2,2,1,1,3,3,1,5","65","","","","","","","","","","",""
"vsl-grid-scene-snap","196","627348","0.0-5.0-6.0-29.0","","","[[""img/obj8.png"",""img/obj4.png"",""img/obj5.png""],[""img/obj11.png"",""img/obj3.png"",0],[0,0,""img/obj2.png""]]","","","1,1,2,2,1,3,2,2,6","9","","","","","","","","","","",""
"vsl-grid-scene-snap","197","630369","0.0-5.0-6.0-30.0","","","[[""img/obj1.png"",""img/obj4.png"",""img/obj5.png""],[""img/obj7.png"",0,""img/obj6.png""],[0,""img/obj12.png"",0]]","","","1,1,1,2,1,3,3,2,5","0","","","","","","","","","","",""
"vsl-grid-scene-snap","198","633382","0.0-5.0-6.0-31.0","","","[[""img/obj3.png"",0,0],[0,""img/obj2.png"",""img/obj8.png""],[""img/obj9.png"",""img/obj10.png"",""img/obj11.png""]]","","","3,2,2,1,3,4,1,1,6","139","","","","","","","","","","",""
"vsl-grid-scene-snap","199","636403","0.0-5.0-6.0-32.0","","","[[""img/obj3.png"",0,""img/obj8.png""],[0,""img/obj2.png"",""img/obj11.png""],[0,""img/obj9.png"",""img/obj10.png""]]","","","3,1,2,2,3,4,1,1,6","95","","","","","","","","","","",""
"vsl-grid-scene-snap","200","639411","0.0-5.0-6.0-33.0","","","[[0,""img/obj9.png"",""img/obj10.png""],[""img/obj8.png"",""img/obj3.png"",0],[""img/obj11.png"",0,""img/obj2.png""]]","","","1,2,2,2,1,4,2,2,6","47","","","","","","","","","","",""
"vsl-grid-scene-snap","201","642438","0.0-5.0-6.0-34.0","","","[[0,""img/obj9.png"",""img/obj10.png""],[""img/obj8.png"",0,""img/obj6.png""],[""img/obj11.png"",""img/obj12.png"",0]]","","","1,2,2,2,1,4,3,2,5","39","","","","","","","","","","",""
"vsl-grid-scene-snap","202","645462","0.0-5.0-6.0-35.0","","","[[""img/obj3.png"",""img/obj9.png"",""img/obj10.png""],[""img/obj8.png"",""img/obj2.png"",0],[""img/obj11.png"",0,0]]","","","1,2,2,2,1,4,1,1,6","43","","","","","","","","","","",""
"vsl-grid-scene-snap","203","648483","0.0-5.0-6.0-36.0","","","[[0,0,""img/obj8.png""],[0,""img/obj6.png"",""img/obj11.png""],[""img/obj12.png"",""img/obj9.png"",""img/obj10.png""]]","","","3,1,2,2,3,4,2,2,5","87","","","","","","","","","","",""
"vsl-grid-scene-snap","204","651498","0.0-5.0-6.0-37.0","","","[[""img/obj4.png"",""img/obj5.png"",0],[""img/obj8.png"",""img/obj3.png"",0],[""img/obj11.png"",0,""img/obj2.png""]]","","","1,2,2,1,1,3,2,2,6","69","","","","","","","","","","",""
"vsl-grid-scene-snap","205","654513","0.0-5.0-6.0-38.0","","","[[""img/obj9.png"",""img/obj10.png"",0],[0,""img/obj6.png"",""img/obj8.png""],[""img/obj12.png"",0,""img/obj11.png""]]","","","3,2,2,1,1,4,2,2,5","111","","","","","","","","","","",""
"vsl-grid-scene-snap","206","657526","0.0-5.0-6.0-39.0","","","[[0,""img/obj9.png"",""img/obj10.png""],[""img/obj1.png"",0,""img/obj6.png""],[""img/obj7.png"",""img/obj12.png"",0]]","","","1,2,1,2,1,4,3,2,5","38","","","","","","","","","","",""
"vsl-grid-scene-snap","207","660549","0.0-5.0-6.0-40.0","","","[[0,0,""img/obj1.png""],[0,""img/obj3.png"",""img/obj7.png""],[""img/obj4.png"",""img/obj5.png"",""img/obj2.png""]]","","","3,1,1,1,3,3,2,2,6","104","","","","","","","","","","",""
"vsl-grid-scene-snap","208","663576","0.0-5.0-6.0-41.0","","","[[0,""img/obj4.png"",""img/obj5.png""],[""img/obj1.png"",0,""img/obj6.png""],[""img/obj7.png"",""img/obj12.png"",0]]","","","1,2,1,2,1,3,3,2,5","36","","","","","","","","","","",""
"vsl-grid-scene-snap","209","666597","0.0-5.0-6.0-42.0","","","[[""img/obj8.png"",0,""img/obj6.png""],[""img/obj11.png"",""img/obj12.png"",0],[""img/obj9.png"",""img/obj10.png"",0]]","","","1,1,2,1,3,4,3,1,5","27","","","","","","","","","","",""
"vsl-grid-scene-snap","210","669618","0.0-5.0-6.0-43.0","","","[[""img/obj8.png"",0,0],[""img/obj11.png"",""img/obj6.png"",0],[""img/obj12.png"",""img/obj9.png"",""img/obj10.png""]]","","","1,1,2,2,3,4,2,2,5","19","","","","","","","","","","",""
"vsl-grid-scene-snap","211","672620","0.0-5.0-6.0-44.0","","","[[0,""img/obj4.png"",""img/obj5.png""],[""img/obj8.png"",0,""img/obj6.png""],[""img/obj11.png"",""img/obj12.png"",0]]","","","1,2,2,2,1,3,3,2,5","37","","","","","","","","","","",""
"vsl-grid-scene-snap","212","675640","0.0-5.0-6.0-45.0","","","[[""img/obj9.png"",""img/obj10.png"",0],[""img/obj1.png"",""img/obj3.png"",0],[""img/obj7.png"",0,""img/obj2.png""]]","","","1,2,1,1,1,4,2,2,6","70","","","","","","","","","","",""
"vsl-grid-scene-snap","213","678644","0.0-5.0-6.0-46.0","","","[[""img/obj8.png"",0,""img/obj6.png""],[""img/obj11.png"",""img/obj12.png"",0],[0,""img/obj9.png"",""img/obj10.png""]]","","","1,1,2,2,3,4,3,1,5","15","","","","","","","","","","",""
"vsl-grid-scene-snap","214","681660","0.0-5.0-6.0-47.0","","","[[""img/obj1.png"",0,""img/obj6.png""],[""img/obj7.png"",""img/obj12.png"",0],[0,""img/obj4.png"",""img/obj5.png""]]","","","1,1,1,2,3,3,3,1,5","12","","","","","","","","","","",""
"vsl-grid-attention-check","215","685688","0.0-5.0-7.0-0.0-0.0","","null","[[0,""img/square.png"",""img/square.png""],[""img/square.png"",""img/attention.png"",0],[""img/square.png"",""img/square.png"",0]]","","","","","null","","","","","","","","","",""
"vsl-grid-attention-check","216","688698","0.0-5.0-7.0-0.1-0.1","","null","[[0,""img/square.png"",""img/square.png""],[""img/square.png"",""img/attention.png"",""img/square.png""],[0,0,""img/square.png""]]","","","","","null","","","","","","","","","",""
"vsl-grid-attention-check","217","691714","0.0-5.0-7.0-0.2-0.2","","null","[[0,""img/square.png"",""img/square.png""],[""img/square.png"",""img/attention.png"",0],[""img/square.png"",0,""img/square.png""]]","","","","","null","","","","","","","","","",""
"vsl-grid-attention-check","218","694725","0.0-5.0-7.0-0.3-0.3","","null","[[""img/square.png"",""img/square.png"",""img/square.png""],[0,""img/attention.png"",0],[""img/square.png"",""img/square.png"",0]]","","","","","null","","","","","","","","","",""
"vsl-grid-attention-check","219","696694","0.0-5.0-7.0-0.4-0.4","","1966.800000011921","[[""img/square.png"",0,0],[""img/square.png"",""img/attention.png"",""img/square.png""],[0,""img/square.png"",""img/square.png""]]","","","","","32","","","","","","","","","",""
"html-keyboard-response","220","697694","0.0-5.0-7.0-1.0","","null"," ","","","","","null","","","","","","","","","",""
"vsl-grid-scene-snap","221","699699","0.0-5.0-8.0-0.0","","","[[""img/obj1.png"",""img/obj9.png"",""img/obj10.png""],[""img/obj7.png"",""img/obj6.png"",0],[""img/obj12.png"",0,0]]","","","1,1,1,2,1,4,2,2,5","6","","","","","","","","","","",""
"vsl-grid-scene-snap","222","702714","0.0-5.0-8.0-1.0","","","[[""img/obj3.png"",""img/obj4.png"",""img/obj5.png""],[0,""img/obj2.png"",""img/obj1.png""],[0,0,""img/obj7.png""]]","","","3,2,1,2,1,3,1,1,6","128","","","","","","","","","","",""
"vsl-grid-scene-snap","223","705738","0.0-5.0-8.0-2.0","","","[[""img/obj3.png"",0,0],[""img/obj1.png"",""img/obj2.png"",0],[""img/obj7.png"",""img/obj9.png"",""img/obj10.png""]]","","","1,2,1,2,3,4,1,1,6","58","","","","","","","","","","",""
"vsl-grid-scene-snap","224","708751","0.0-5.0-8.0-3.0","","","[[""img/obj4.png"",""img/obj5.png"",""img/obj1.png""],[""img/obj3.png"",0,""img/obj7.png""],[0,""img/obj2.png"",0]]","","","3,1,1,1,1,3,1,2,6","76","","","","","","","","","","",""
"vsl-grid-scene-snap","225","711773","0.0-5.0-8.0-4.0","","","[[""img/obj8.png"",""img/obj3.png"",0],[""img/obj11.png"",0,""img/obj2.png""],[0,""img/obj4.png"",""img/obj5.png""]]","","","1,1,2,2,3,3,2,1,6","21","","","","","","","","","","",""
"vsl-grid-scene-snap","226","714800","0.0-5.0-8.0-5.0","","","[[""img/obj3.png"",0,""img/obj8.png""],[0,""img/obj2.png"",""img/obj11.png""],[0,""img/obj4.png"",""img/obj5.png""]]","","","3,1,2,2,3,3,1,1,6","93","","","","","","","","","","",""
"vsl-grid-scene-snap","227","717826","0.0-5.0-8.0-6.0","","","[[""img/obj8.png"",""img/obj9.png"",""img/obj10.png""],[""img/obj11.png"",""img/obj6.png"",0],[""img/obj12.png"",0,0]]","","","1,1,2,2,1,4,2,2,5","7","","","","","","","","","","",""
"vsl-grid-scene-snap","228","720834","0.0-5.0-8.0-7.0","","","[[0,""img/obj9.png"",""img/obj10.png""],[""img/obj3.png"",0,""img/obj8.png""],[0,""img/obj2.png"",""img/obj11.png""]]","","","3,2,2,2,1,4,1,2,6","127","","","","","","","","","","",""
"vsl-grid-scene-snap","229","723849","0.0-5.0-8.0-8.0","","","[[""img/obj8.png"",""img/obj4.png"",""img/obj5.png""],[""img/obj11.png"",""img/obj6.png"",0],[""img/obj12.png"",0,0]]","","","1,1,2,2,1,3,2,2,5","5","","","","","","","","","","",""
"vsl-grid-scene-snap","230","726869","0.0-5.0-8.0-9.0","","","[[""img/obj9.png"",""img/obj10.png"",""img/obj1.png""],[""img/obj3.png"",0,""img/obj7.png""],[0,""img/obj2.png"",0]]","","","3,1,1,1,1,4,1,2,6","78","","","","","","","","","","",""
"vsl-grid-scene-snap","231","729884","0.0-5.0-8.0-10.0","","","[[0,0,""img/obj6.png""],[0,""img/obj12.png"",""img/obj8.png""],[""img/obj9.png"",""img/obj10.png"",""img/obj11.png""]]","","","3,2,2,1,3,4,3,1,5","143","","","","","","","","","","",""
"vsl-grid-scene-snap","232","732893","0.0-5.0-8.0-11.0","","","[[""img/obj8.png"",0,""img/obj6.png""],[""img/obj11.png"",""img/obj12.png"",0],[""img/obj4.png"",""img/obj5.png"",0]]","","","1,1,2,1,3,3,3,1,5","25","","","","","","","","","","",""
"vsl-grid-scene-snap","233","735908","0.0-5.0-8.0-12.0","","","[[""img/obj3.png"",""img/obj9.png"",""img/obj10.png""],[""img/obj1.png"",""img/obj2.png"",0],[""img/obj7.png"",0,0]]","","","1,2,1,2,1,4,1,1,6","42","","","","","","","","","","",""
"vsl-grid-scene-snap","234","738925","0.0-5.0-8.0-13.0","","","[[0,""img/obj6.png"",""img/obj8.png""],[""img/obj12.png"",0,""img/obj11.png""],[0,""img/obj4.png"",""img/obj5.png""]]","","","3,1,2,2,3,3,2,1,5","89","","","","","","","","","","",""
"vsl-grid-scene-snap","235","741939","0.0-5.0-8.0-14.0","","","[[""img/obj1.png"",0,0],[""img/obj7.png"",""img/obj3.png"",0],[""img/obj9.png"",""img/obj10.png"",""img/obj2.png""]]","","","1,1,1,1,3,4,2,2,6","34","","","","","","","","","","",""
"vsl-grid-scene-snap","236","744962","0.0-5.0-8.0-15.0","","","[[0,0,""img/obj1.png""],[0,""img/obj3.png"",""img/obj7.png""],[""img/obj9.png"",""img/obj10.png"",""img/obj2.png""]]","","","3,1,1,1,3,4,2,2,6","106","","","","","","","","","","",""
"vsl-grid-scene-snap","237","747966","0.0-5.0-8.0-16.0","","","[[""img/obj9.png"",""img/obj10.png"",""img/obj1.png""],[0,""img/obj3.png"",""img/obj7.png""],[0,0,""img/obj2.png""]]","","","3,1,1,1,1,4,2,2,6","82","","","","","","","","","","",""
"vsl-grid-scene-snap","238","750977","0.0-5.0-8.0-17.0","","","[[""img/obj3.png"",""img/obj4.png"",""img/obj5.png""],[""img/obj8.png"",""img/obj2.png"",0],[""img/obj11.png"",0,0]]","","","1,2,2,2,1,3,1,1,6","41","","","","","","","","","","",""
"vsl-grid-scene-snap","239","753984","0.0-5.0-8.0-18.0","","","[[""img/obj1.png"",""img/obj9.png"",""img/obj10.png""],[""img/obj7.png"",0,""img/obj6.png""],[0,""img/obj12.png"",0]]","","","1,1,1,2,1,4,3,2,5","2","","","","","","","","","","",""
"vsl-grid-scene-snap","240","756998","0.0-5.0-8.0-19.0","","","[[""img/obj1.png"",0,""img/obj6.png""],[""img/obj7.png"",""img/obj12.png"",0],[""img/obj9.png"",""img/obj10.png"",0]]","","","1,1,1,1,3,4,3,1,5","26","","","","","","","","","","",""
"vsl-grid-scene-snap","241","760018","0.0-5.0-8.0-20.0","","","[[""img/obj8.png"",0,""img/obj6.png""],[""img/obj11.png"",""img/obj12.png"",0],[0,""img/obj4.png"",""img/obj5.png""]]","","","1,1,2,2,3,3,3,1,5","13","","","","","","","","","","",""
"vsl-grid-scene-snap","242","763037","0.0-5.0-8.0-21.0","","","[[""img/obj4.png"",""img/obj5.png"",""img/obj1.png""],[0,""img/obj3.png"",""img/obj7.png""],[0,0,""img/obj2.png""]]","","","3,1,1,1,1,3,2,2,6","80","","","","","","","","","","",""
"vsl-grid-scene-snap","243","766051","0.0-5.0-8.0-22.0","","","[[""img/obj3.png"",0,0],[0,""img/obj2.png"",""img/obj1.png""],[""img/obj4.png"",""img/obj5.png"",""img/obj7.png""]]","","","3,2,1,1,3,3,1,1,6","136","","","","","","","","","","",""
"vsl-grid-scene-snap","244","769067","0.0-5.0-8.0-23.0","","","[[""img/obj3.png"",0,0],[""img/obj8.png"",""img/obj2.png"",0],[""img/obj11.png"",""img/obj9.png"",""img/obj10.png""]]","","","1,2,2,2,3,4,1,1,6","59","","","","","","","","","","",""
"vsl-grid-scene-snap","245","772082","0.0-5.0-8.0-24.0","","","[[""img/obj9.png"",""img/obj10.png"",""img/obj8.png""],[0,""img/obj3.png"",""img/obj11.png""],[0,0,""img/obj2.png""]]","","","3,1,2,1,1,4,2,2,6","83","","","","","","","","","","",""
"vsl-grid-scene-snap","246","775099","0.0-5.0-8.0-25.0","","","[[""img/obj3.png"",""img/obj4.png"",""img/obj5.png""],[0,""img/obj2.png"",""img/obj8.png""],[0,0,""img/obj11.png""]]","","","3,2,2,2,1,3,1,1,6","129","","","","","","","","","","",""
"vsl-grid-scene-snap","247","778117","0.0-5.0-8.0-26.0","","","[[0,""img/obj9.png"",""img/obj10.png""],[0,""img/obj6.png"",""img/obj1.png""],[""img/obj12.png"",0,""img/obj7.png""]]","","","3,2,1,2,1,4,2,2,5","122","","","","","","","","","","",""
"vsl-grid-scene-snap","248","781119","0.0-5.0-8.0-27.0","","","[[""img/obj3.png"",0,0],[0,""img/obj2.png"",""img/obj8.png""],[""img/obj4.png"",""img/obj5.png"",""img/obj11.png""]]","","","3,2,2,1,3,3,1,1,6","137","","","","","","","","","","",""
"vsl-grid-scene-snap","249","784127","0.0-5.0-8.0-28.0","","","[[""img/obj8.png"",""img/obj3.png"",0],[""img/obj11.png"",0,""img/obj2.png""],[""img/obj4.png"",""img/obj5.png"",0]]","","","1,1,2,1,3,3,2,1,6","29","","","","","","","","","","",""
"vsl-grid-scene-snap","250","787144","0.0-5.0-8.0-29.0","","","[[0,""img/obj6.png"",""img/obj8.png""],[""img/obj12.png"",0,""img/obj11.png""],[""img/obj4.png"",""img/obj5.png"",0]]","","","3,1,2,1,3,3,2,1,5","97","","","","","","","","","","",""
"vsl-grid-scene-snap","251","790164","0.0-5.0-8.0-30.0","","","[[0,0,""img/obj6.png""],[""img/obj8.png"",""img/obj12.png"",0],[""img/obj11.png"",""img/obj9.png"",""img/obj10.png""]]","","","1,2,2,2,3,4,3,1,5","51","","","","","","","","","","",""
"vsl-grid-scene-snap","252","793173","0.0-5.0-8.0-31.0","","","[[""img/obj9.png"",""img/obj10.png"",""img/obj6.png""],[0,""img/obj12.png"",""img/obj8.png""],[0,0,""img/obj11.png""]]","","","3,2,2,1,1,4,3,1,5","119","","","","","","","","","","",""
"vsl-grid-scene-snap","253","796195","0.0-5.0-8.0-32.0","","","[[""img/obj3.png"",0,""img/obj1.png""],[0,""img/obj2.png"",""img/obj7.png""],[""img/obj9.png"",""img/obj10.png"",0]]","","","3,1,1,1,3,4,1,1,6","102","","","","","","","","","","",""
"vsl-grid-scene-snap","254","799219","0.0-5.0-8.0-33.0","","","[[0,""img/obj3.png"",0],[""img/obj1.png"",0,""img/obj2.png""],[""img/obj7.png"",""img/obj4.png"",""img/obj5.png""]]","","","1,2,1,2,3,3,2,1,6","52","","","","","","","","","","",""
"vsl-grid-scene-snap","255","802230","0.0-5.0-8.0-34.0","","","[[""img/obj9.png"",""img/obj10.png"",""img/obj6.png""],[""img/obj1.png"",""img/obj12.png"",0],[""img/obj7.png"",0,0]]","","","1,2,1,1,1,4,3,1,5","66","","","","","","","","","","",""
"vsl-grid-scene-snap","256","805242","0.0-5.0-8.0-35.0","","","[[""img/obj1.png"",""img/obj4.png"",""img/obj5.png""],[""img/obj7.png"",""img/obj6.png"",0],[""img/obj12.png"",0,0]]","","","1,1,1,2,1,3,2,2,5","4","","","","","","","","","","",""
"vsl-grid-scene-snap","257","808247","0.0-5.0-8.0-36.0","","","[[""img/obj1.png"",""img/obj3.png"",0],[""img/obj7.png"",0,""img/obj2.png""],[""img/obj4.png"",""img/obj5.png"",0]]","","","1,1,1,1,3,3,2,1,6","28","","","","","","","","","","",""
"vsl-grid-scene-snap","258","811254","0.0-5.0-8.0-37.0","","","[[""img/obj3.png"",0,""img/obj8.png""],[0,""img/obj2.png"",""img/obj11.png""],[""img/obj4.png"",""img/obj5.png"",0]]","","","3,1,2,1,3,3,1,1,6","101","","","","","","","","","","",""
"vsl-grid-scene-snap","259","814269","0.0-5.0-8.0-38.0","","","[[""img/obj8.png"",""img/obj9.png"",""img/obj10.png""],[""img/obj11.png"",0,""img/obj6.png""],[0,""img/obj12.png"",0]]","","","1,1,2,2,1,4,3,2,5","3","","","","","","","","","","",""
"vsl-grid-scene-snap","260","817278","0.0-5.0-8.0-39.0","","","[[""img/obj9.png"",""img/obj10.png"",0],[""img/obj3.png"",0,""img/obj8.png""],[0,""img/obj2.png"",""img/obj11.png""]]","","","3,2,2,1,1,4,1,2,6","115","","","","","","","","","","",""
"vsl-grid-scene-snap","261","820287","0.0-5.0-8.0-40.0","","","[[""img/obj4.png"",""img/obj5.png"",""img/obj8.png""],[""img/obj3.png"",0,""img/obj11.png""],[0,""img/obj2.png"",0]]","","","3,1,2,1,1,3,1,2,6","77","","","","","","","","","","",""
"vsl-grid-scene-snap","262","823304","0.0-5.0-8.0-41.0","","","[[""img/obj1.png"",""img/obj3.png"",0],[""img/obj7.png"",0,""img/obj2.png""],[0,""img/obj4.png"",""img/obj5.png""]]","","","1,1,1,2,3,3,2,1,6","20","","","","","","","","","","",""
"vsl-grid-scene-snap","263","826310","0.0-5.0-8.0-42.0","","","[[""img/obj1.png"",""img/obj3.png"",0],[""img/obj7.png"",0,""img/obj2.png""],[""img/obj9.png"",""img/obj10.png"",0]]","","","1,1,1,1,3,4,2,1,6","30","","","","","","","","","","",""
"vsl-grid-scene-snap","264","829328","0.0-5.0-8.0-43.0","","","[[0,0,""img/obj6.png""],[""img/obj8.png"",""img/obj12.png"",0],[""img/obj11.png"",""img/obj4.png"",""img/obj5.png""]]","","","1,2,2,2,3,3,3,1,5","49","","","","","","","","","","",""
"vsl-grid-scene-snap","265","832338","0.0-5.0-8.0-44.0","","","[[0,""img/obj3.png"",0],[""img/obj8.png"",0,""img/obj2.png""],[""img/obj11.png"",""img/obj4.png"",""img/obj5.png""]]","","","1,2,2,2,3,3,2,1,6","53","","","","","","","","","","",""
"vsl-grid-scene-snap","266","835351","0.0-5.0-8.0-45.0","","","[[""img/obj9.png"",""img/obj10.png"",0],[""img/obj8.png"",""img/obj3.png"",0],[""img/obj11.png"",0,""img/obj2.png""]]","","","1,2,2,1,1,4,2,2,6","71","","","","","","","","","","",""
"vsl-grid-scene-snap","267","838364","0.0-5.0-8.0-46.0","","","[[""img/obj8.png"",""img/obj3.png"",0],[""img/obj11.png"",0,""img/obj2.png""],[0,""img/obj9.png"",""img/obj10.png""]]","","","1,1,2,2,3,4,2,1,6","23","","","","","","","","","","",""
"vsl-grid-scene-snap","268","841376","0.0-5.0-8.0-47.0","","","[[""img/obj3.png"",0,""img/obj1.png""],[0,""img/obj2.png"",""img/obj7.png""],[0,""img/obj4.png"",""img/obj5.png""]]","","","3,1,1,2,3,3,1,1,6","92","","","","","","","","","","",""
"vsl-grid-attention-check","269","845394","0.0-5.0-9.0-0.0-0.0","","null","[[""img/square.png"",""img/square.png"",""img/square.png""],[0,""img/attention.png"",""img/square.png""],[0,0,""img/square.png""]]","","","","","null","","","","","","","","","",""
"vsl-grid-attention-check","270","848397","0.0-5.0-9.0-0.1-0.1","","null","[[""img/square.png"",""img/square.png"",0],[0,""img/attention.png"",""img/square.png""],[0,""img/square.png"",""img/square.png""]]","","","","","null","","","","","","","","","",""
"vsl-grid-attention-check","271","851400","0.0-5.0-9.0-0.2-0.2","","null","[[""img/square.png"",0,0],[""img/square.png"",""img/attention.png"",0],[""img/square.png"",""img/square.png"",""img/square.png""]]","","","","","null","","","","","","","","","",""
"vsl-grid-attention-check","272","854408","0.0-5.0-9.0-0.3-0.3","","null","[[""img/square.png"",0,""img/square.png""],[""img/square.png"",""img/attention.png"",""img/square.png""],[0,""img/square.png"",0]]","","","","","null","","","","","","","","","",""
"vsl-grid-attention-check","273","857425","0.0-5.0-9.0-0.4-0.4","","null","[[0,0,""img/square.png""],[""img/square.png"",""img/attention.png"",""img/square.png""],[""img/square.png"",""img/square.png"",0]]","","","","","null","","","","","","","","","",""
"vsl-grid-attention-check","274","860427","0.0-5.0-9.0-0.5-0.5","","null","[[""img/square.png"",""img/square.png"",0],[0,""img/attention.png"",""img/square.png""],[""img/square.png"",""img/square.png"",0]]","","","","","null","","","","","","","","","",""
"vsl-grid-attention-check","275","863432","0.0-5.0-9.0-0.6-0.6","","null","[[0,""img/square.png"",0],[""img/square.png"",""img/attention.png"",""img/square.png""],[""img/square.png"",0,""img/square.png""]]","","","","","null","","","","","","","","","",""
"vsl-grid-attention-check","276","866439","0.0-5.0-9.0-0.7-0.7","","null","[[""img/square.png"",0,""img/square.png""],[0,""img/attention.png"",""img/square.png""],[""img/square.png"",""img/square.png"",0]]","","","","","null","","","","","","","","","",""
"vsl-grid-attention-check","277","869441","0.0-5.0-9.0-0.8-0.8","","null","[[""img/square.png"",""img/square.png"",0],[""img/square.png"",""img/attention.png"",0],[""img/square.png"",0,""img/square.png""]]","","","","","null","","","","","","","","","",""
"vsl-grid-attention-check","278","872442","0.0-5.0-9.0-0.9-0.9","","null","[[0,0,""img/square.png""],[""img/square.png"",""img/attention.png"",0],[""img/square.png"",""img/square.png"",""img/square.png""]]","","","","","null","","","","","","","","","",""
"vsl-grid-attention-check","279","875455","0.0-5.0-9.0-0.10-0.10","","null","[[0,0,""img/square.png""],[""img/square.png"",""img/attention.png"",0],[""img/square.png"",""img/square.png"",""img/square.png""]]","","","","","null","","","","","","","","","",""
"vsl-grid-attention-check","280","878462","0.0-5.0-9.0-0.11-0.11","","null","[[0,""img/square.png"",""img/square.png""],[""img/square.png"",""img/attention.png"",0],[0,""img/square.png"",""img/square.png""]]","","","","","null","","","","","","","","","",""
"vsl-grid-attention-check","281","878815","0.0-5.0-9.0-0.12-0.12","","351.9000000357628","[[""img/square.png"",0,""img/square.png""],[""img/square.png"",""img/attention.png"",0],[""img/square.png"",""img/square.png"",0]]","","","","","32","","","","","","","","","",""
"html-keyboard-response","282","879816","0.0-5.0-9.0-1.0","","null"," ","","","","","null","","","","","","","","","",""
"vsl-grid-scene-snap","283","881817","0.0-5.0-10.0-0.0","","","[[0,""img/obj6.png"",0],[""img/obj12.png"",0,""img/obj8.png""],[""img/obj4.png"",""img/obj5.png"",""img/obj11.png""]]","","","3,2,2,1,3,3,2,1,5","133","","","","","","","","","","",""
"vsl-grid-scene-snap","284","884827","0.0-5.0-10.0-1.0","","","[[""img/obj3.png"",0,0],[0,""img/obj2.png"",""img/obj1.png""],[""img/obj9.png"",""img/obj10.png"",""img/obj7.png""]]","","","3,2,1,1,3,4,1,1,6","138","","","","","","","","","","",""
"vsl-grid-scene-snap","285","887846","0.0-5.0-10.0-2.0","","","[[0,""img/obj6.png"",0],[""img/obj12.png"",0,""img/obj1.png""],[""img/obj9.png"",""img/obj10.png"",""img/obj7.png""]]","","","3,2,1,1,3,4,2,1,5","134","","","","","","","","","","",""
"vsl-grid-scene-snap","286","890864","0.0-5.0-10.0-3.0","","","[[""img/obj1.png"",0,0],[""img/obj7.png"",""img/obj3.png"",0],[""img/obj4.png"",""img/obj5.png"",""img/obj2.png""]]","","","1,1,1,1,3,3,2,2,6","32","","","","","","","","","","",""
"vsl-grid-scene-snap","287","893876","0.0-5.0-10.0-4.0","","","[[0,0,""img/obj8.png""],[0,""img/obj6.png"",""img/obj11.png""],[""img/obj12.png"",""img/obj4.png"",""img/obj5.png""]]","","","3,1,2,2,3,3,2,2,5","85","","","","","","","","","","",""
"vsl-grid-scene-snap","288","896893","0.0-5.0-10.0-5.0","","","[[""img/obj4.png"",""img/obj5.png"",0],[""img/obj1.png"",""img/obj3.png"",0],[""img/obj7.png"",0,""img/obj2.png""]]","","","1,2,1,1,1,3,2,2,6","68","","","","","","","","","","",""
"vsl-grid-scene-snap","289","899907","0.0-5.0-10.0-6.0","","","[[""img/obj1.png"",""img/obj4.png"",""img/obj5.png""],[""img/obj7.png"",""img/obj3.png"",0],[0,0,""img/obj2.png""]]","","","1,1,1,2,1,3,2,2,6","8","","","","","","","","","","",""
"vsl-grid-scene-snap","290","902926","0.0-5.0-10.0-7.0","","","[[0,""img/obj6.png"",0],[""img/obj12.png"",0,""img/obj8.png""],[""img/obj9.png"",""img/obj10.png"",""img/obj11.png""]]","","","3,2,2,1,3,4,2,1,5","135","","","","","","","","","","",""
"vsl-grid-scene-snap","291","905941","0.0-5.0-10.0-8.0","","","[[""img/obj9.png"",""img/obj10.png"",0],[0,""img/obj6.png"",""img/obj1.png""],[""img/obj12.png"",0,""img/obj7.png""]]","","","3,2,1,1,1,4,2,2,5","110","","","","","","","","","","",""
"vsl-grid-scene-snap","292","908956","0.0-5.0-10.0-9.0","","","[[""img/obj1.png"",""img/obj9.png"",""img/obj10.png""],[""img/obj7.png"",""img/obj3.png"",0],[0,0,""img/obj2.png""]]","","","1,1,1,2,1,4,2,2,6","10","","","","","","","","","","",""
"vsl-grid-scene-snap","293","911970","0.0-5.0-10.0-10.0","","","[[""img/obj9.png"",""img/obj10.png"",0],[""img/obj3.png"",0,""img/obj1.png""],[0,""img/obj2.png"",""img/obj7.png""]]","","","3,2,1,1,1,4,1,2,6","114","","","","","","","","","","",""
"vsl-grid-scene-snap","294","914984","0.0-5.0-10.0-11.0","","","[[""img/obj8.png"",0,0],[""img/obj11.png"",""img/obj3.png"",0],[""img/obj4.png"",""img/obj5.png"",""img/obj2.png""]]","","","1,1,2,1,3,3,2,2,6","33","","","","","","","","","","",""
"vsl-grid-scene-snap","295","918001","0.0-5.0-10.0-12.0","","","[[""img/obj1.png"",0,""img/obj6.png""],[""img/obj7.png"",""img/obj12.png"",0],[""img/obj4.png"",""img/obj5.png"",0]]","","","1,1,1,1,3,3,3,1,5","24","","","","","","","","","","",""
"vsl-grid-scene-snap","296","921020","0.0-5.0-10.0-13.0","","","[[0,0,""img/obj6.png""],[0,""img/obj12.png"",""img/obj8.png""],[""img/obj4.png"",""img/obj5.png"",""img/obj11.png""]]","","","3,2,2,1,3,3,3,1,5","141","","","","","","","","","","",""
"vsl-grid-scene-snap","297","924036","0.0-5.0-10.0-14.0","","","[[""img/obj1.png"",0,""img/obj6.png""],[""img/obj7.png"",""img/obj12.png"",0],[0,""img/obj9.png"",""img/obj10.png""]]","","","1,1,1,2,3,4,3,1,5","14","","","","","","","","","","",""
"vsl-grid-scene-snap","298","927059","0.0-5.0-10.0-15.0","","","[[""img/obj3.png"",0,""img/obj8.png""],[0,""img/obj2.png"",""img/obj11.png""],[""img/obj9.png"",""img/obj10.png"",0]]","","","3,1,2,1,3,4,1,1,6","103","","","","","","","","","","",""
"vsl-grid-scene-snap","299","930090","0.0-5.0-10.0-16.0","","","[[""img/obj3.png"",""img/obj9.png"",""img/obj10.png""],[0,""img/obj2.png"",""img/obj8.png""],[0,0,""img/obj11.png""]]","","","3,2,2,2,1,4,1,1,6","131","","","","","","","","","","",""
"vsl-grid-scene-snap","300","933108","0.0-5.0-10.0-17.0","","","[[0,0,""img/obj6.png""],[""img/obj1.png"",""img/obj12.png"",0],[""img/obj7.png"",""img/obj4.png"",""img/obj5.png""]]","","","1,2,1,2,3,3,3,1,5","48","","","","","","","","","","",""
"vsl-grid-scene-snap","301","936125","0.0-5.0-10.0-18.0","","","[[""img/obj4.png"",""img/obj5.png"",""img/obj6.png""],[0,""img/obj12.png"",""img/obj8.png""],[0,0,""img/obj11.png""]]","","","3,2,2,1,1,3,3,1,5","117","","","","","","","","","","",""
"vsl-grid-scene-snap","302","939141","0.0-5.0-10.0-19.0","","","[[""img/obj4.png"",""img/obj5.png"",0],[""img/obj3.png"",0,""img/obj8.png""],[0,""img/obj2.png"",""img/obj11.png""]]","","","3,2,2,1,1,3,1,2,6","113","","","","","","","","","","",""
"vsl-grid-scene-snap","303","942156","0.0-5.0-10.0-20.0","","","[[0,""img/obj9.png"",""img/obj10.png""],[""img/obj3.png"",0,""img/obj1.png""],[0,""img/obj2.png"",""img/obj7.png""]]","","","3,2,1,2,1,4,1,2,6","126","","","","","","","","","","",""
"vsl-grid-scene-snap","304","945160","0.0-5.0-10.0-21.0","","","[[""img/obj4.png"",""img/obj5.png"",""img/obj1.png""],[0,""img/obj6.png"",""img/obj7.png""],[""img/obj12.png"",0,0]]","","","3,1,1,1,1,3,2,2,5","72","","","","","","","","","","",""
"vsl-grid-scene-snap","305","948179","0.0-5.0-10.0-22.0","","","[[""img/obj4.png"",""img/obj5.png"",""img/obj8.png""],[0,""img/obj3.png"",""img/obj11.png""],[0,0,""img/obj2.png""]]","","","3,1,2,1,1,3,2,2,6","81","","","","","","","","","","",""
"vsl-grid-scene-snap","306","951191","0.0-5.0-10.0-23.0","","","[[""img/obj9.png"",""img/obj10.png"",0],[""img/obj8.png"",0,""img/obj6.png""],[""img/obj11.png"",""img/obj12.png"",0]]","","","1,2,2,1,1,4,3,2,5","63","","","","","","","","","","",""
"vsl-grid-scene-snap","307","954206","0.0-5.0-10.0-24.0","","","[[0,""img/obj3.png"",0],[""img/obj1.png"",0,""img/obj2.png""],[""img/obj7.png"",""img/obj9.png"",""img/obj10.png""]]","","","1,2,1,2,3,4,2,1,6","54","","","","","","","","","","",""
"vsl-grid-scene-snap","308","957223","0.0-5.0-10.0-25.0","","","[[0,""img/obj6.png"",""img/obj1.png""],[""img/obj12.png"",0,""img/obj7.png""],[0,""img/obj4.png"",""img/obj5.png""]]","","","3,1,1,2,3,3,2,1,5","88","","","","","","","","","","",""
"vsl-grid-scene-snap","309","960238","0.0-5.0-10.0-26.0","","","[[""img/obj3.png"",0,0],[""img/obj8.png"",""img/obj2.png"",0],[""img/obj11.png"",""img/obj4.png"",""img/obj5.png""]]","","","1,2,2,2,3,3,1,1,6","57","","","","","","","","","","",""
"vsl-grid-scene-snap","310","963255","0.0-5.0-10.0-27.0","","","[[""img/obj3.png"",""img/obj9.png"",""img/obj10.png""],[0,""img/obj2.png"",""img/obj1.png""],[0,0,""img/obj7.png""]]","","","3,2,1,2,1,4,1,1,6","130","","","","","","","","","","",""
"vsl-grid-scene-snap","311","966271","0.0-5.0-10.0-28.0","","","[[0,""img/obj4.png"",""img/obj5.png""],[0,""img/obj6.png"",""img/obj8.png""],[""img/obj12.png"",0,""img/obj11.png""]]","","","3,2,2,2,1,3,2,2,5","121","","","","","","","","","","",""
"vsl-grid-scene-snap","312","969286","0.0-5.0-10.0-29.0","","","[[0,""img/obj6.png"",""img/obj1.png""],[""img/obj12.png"",0,""img/obj7.png""],[""img/obj4.png"",""img/obj5.png"",0]]","","","3,1,1,1,3,3,2,1,5","96","","","","","","","","","","",""
"vsl-grid-scene-snap","313","972297","0.0-5.0-10.0-30.0","","","[[""img/obj4.png"",""img/obj5.png"",""img/obj6.png""],[""img/obj1.png"",""img/obj12.png"",0],[""img/obj7.png"",0,0]]","","","1,2,1,1,1,3,3,1,5","64","","","","","","","","","","",""
"vsl-grid-scene-snap","314","975305","0.0-5.0-10.0-31.0","","","[[""img/obj9.png"",""img/obj10.png"",""img/obj8.png""],[""img/obj3.png"",0,""img/obj11.png""],[0,""img/obj2.png"",0]]","","","3,1,2,1,1,4,1,2,6","79","","","","","","","","","","",""
"vsl-grid-scene-snap","315","978338","0.0-5.0-10.0-32.0","","","[[""img/obj4.png"",""img/obj5.png"",""img/obj6.png""],[0,""img/obj12.png"",""img/obj1.png""],[0,0,""img/obj7.png""]]","","","3,2,1,1,1,3,3,1,5","116","","","","","","","","","","",""
"vsl-grid-scene-snap","316","981348","0.0-5.0-10.0-33.0","","","[[0,0,""img/obj8.png""],[0,""img/obj3.png"",""img/obj11.png""],[""img/obj4.png"",""img/obj5.png"",""img/obj2.png""]]","","","3,1,2,1,3,3,2,2,6","105","","","","","","","","","","",""
"vsl-grid-scene-snap","317","984350","0.0-5.0-10.0-34.0","","","[[0,0,""img/obj1.png""],[0,""img/obj6.png"",""img/obj7.png""],[""img/obj12.png"",""img/obj9.png"",""img/obj10.png""]]","","","3,1,1,2,3,4,2,2,5","86","","","","","","","","","","",""
"vsl-grid-scene-snap","318","987353","0.0-5.0-10.0-35.0","","","[[0,""img/obj4.png"",""img/obj5.png""],[""img/obj3.png"",0,""img/obj8.png""],[0,""img/obj2.png"",""img/obj11.png""]]","","","3,2,2,2,1,3,1,2,6","125","","","","","","","","","","",""
"vsl-grid-scene-snap","319","990358","0.0-5.0-10.0-36.0","","","[[0,""img/obj4.png"",""img/obj5.png""],[""img/obj8.png"",""img/obj3.png"",0],[""img/obj11.png"",0,""img/obj2.png""]]","","","1,2,2,2,1,3,2,2,6","45","","","","","","","","","","",""
"vsl-grid-scene-snap","320","993378","0.0-5.0-10.0-37.0","","","[[""img/obj8.png"",0,0],[""img/obj11.png"",""img/obj6.png"",0],[""img/obj12.png"",""img/obj4.png"",""img/obj5.png""]]","","","1,1,2,2,3,3,2,2,5","17","","","","","","","","","","",""
"vsl-grid-scene-snap","321","996391","0.0-5.0-10.0-38.0","","","[[0,""img/obj9.png"",""img/obj10.png""],[0,""img/obj6.png"",""img/obj8.png""],[""img/obj12.png"",0,""img/obj11.png""]]","","","3,2,2,2,1,4,2,2,5","123","","","","","","","","","","",""
"vsl-grid-scene-snap","322","999410","0.0-5.0-10.0-39.0","","","[[""img/obj3.png"",0,0],[""img/obj1.png"",""img/obj2.png"",0],[""img/obj7.png"",""img/obj4.png"",""img/obj5.png""]]","","","1,2,1,2,3,3,1,1,6","56","","","","","","","","","","",""
"vsl-grid-scene-snap","323","1002427","0.0-5.0-10.0-40.0","","","[[0,0,""img/obj1.png""],[0,""img/obj6.png"",""img/obj7.png""],[""img/obj12.png"",""img/obj4.png"",""img/obj5.png""]]","","","3,1,1,2,3,3,2,2,5","84","","","","","","","","","","",""
"vsl-grid-scene-snap","324","1005455","0.0-5.0-10.0-41.0","","","[[""img/obj3.png"",""img/obj4.png"",""img/obj5.png""],[""img/obj1.png"",""img/obj2.png"",0],[""img/obj7.png"",0,0]]","","","1,2,1,2,1,3,1,1,6","40","","","","","","","","","","",""
"vsl-grid-scene-snap","325","1008474","0.0-5.0-10.0-42.0","","","[[0,""img/obj9.png"",""img/obj10.png""],[""img/obj1.png"",""img/obj3.png"",0],[""img/obj7.png"",0,""img/obj2.png""]]","","","1,2,1,2,1,4,2,2,6","46","","","","","","","","","","",""
"vsl-grid-scene-snap","326","1011498","0.0-5.0-10.0-43.0","","","[[0,""img/obj3.png"",0],[""img/obj8.png"",0,""img/obj2.png""],[""img/obj11.png"",""img/obj9.png"",""img/obj10.png""]]","","","1,2,2,2,3,4,2,1,6","55","","","","","","","","","","",""
"vsl-grid-scene-snap","327","1014520","0.0-5.0-10.0-44.0","","","[[""img/obj4.png"",""img/obj5.png"",""img/obj8.png""],[0,""img/obj6.png"",""img/obj11.png""],[""img/obj12.png"",0,0]]","","","3,1,2,1,1,3,2,2,5","73","","","","","","","","","","",""
"vsl-grid-scene-snap","328","1017539","0.0-5.0-10.0-45.0","","","[[0,0,""img/obj6.png""],[0,""img/obj12.png"",""img/obj1.png""],[""img/obj4.png"",""img/obj5.png"",""img/obj7.png""]]","","","3,2,1,1,3,3,3,1,5","140","","","","","","","","","","",""
"vsl-grid-scene-snap","329","1020563","0.0-5.0-10.0-46.0","","","[[""img/obj9.png"",""img/obj10.png"",""img/obj6.png""],[0,""img/obj12.png"",""img/obj1.png""],[0,0,""img/obj7.png""]]","","","3,2,1,1,1,4,3,1,5","118","","","","","","","","","","",""
"vsl-grid-scene-snap","330","1023586","0.0-5.0-10.0-47.0","","","[[0,0,""img/obj6.png""],[0,""img/obj12.png"",""img/obj1.png""],[""img/obj9.png"",""img/obj10.png"",""img/obj7.png""]]","","","3,2,1,1,3,4,3,1,5","142","","","","","","","","","","",""
"html-keyboard-response","331","1025607","0.0-6.0-0.0","","null","<p>Your practice session is now over.</p><p>The test session will start in 2 minutes.<p><p>You can use these two minutes to relaxe your eyes.</p><p> <br> </p><p>Seconds remaining:</p><p> <br> </p>120","","","","","null","","","","","","","","","",""
"html-keyboard-response","332","1026617","0.0-6.0-1.0","","null","<p>Your practice session is now over.</p><p>The test session will start in 2 minutes.<p><p>You can use these two minutes to relaxe your eyes.</p><p> <br> </p><p>Seconds remaining:</p><p> <br> </p>119","","","","","null","","","","","","","","","",""
"html-keyboard-response","333","1027618","0.0-6.0-2.0","","null","<p>Your practice session is now over.</p><p>The test session will start in 2 minutes.<p><p>You can use these two minutes to relaxe your eyes.</p><p> <br> </p><p>Seconds remaining:</p><p> <br> </p>118","","","","","null","","","","","","","","","",""
"html-keyboard-response","334","1028620","0.0-6.0-3.0","","null","<p>Your practice session is now over.</p><p>The test session will start in 2 minutes.<p><p>You can use these two minutes to relaxe your eyes.</p><p> <br> </p><p>Seconds remaining:</p><p> <br> </p>117","","","","","null","","","","","","","","","",""
"html-keyboard-response","335","1029623","0.0-6.0-4.0","","null","<p>Your practice session is now over.</p><p>The test session will start in 2 minutes.<p><p>You can use these two minutes to relaxe your eyes.</p><p> <br> </p><p>Seconds remaining:</p><p> <br> </p>116","","","","","null","","","","","","","","","",""
"html-keyboard-response","336","1030628","0.0-6.0-5.0","","null","<p>Your practice session is now over.</p><p>The test session will start in 2 minutes.<p><p>You can use these two minutes to relaxe your eyes.</p><p> <br> </p><p>Seconds remaining:</p><p> <br> </p>115","","","","","null","","","","","","","","","",""
"html-keyboard-response","337","1031628","0.0-6.0-6.0","","null","<p>Your practice session is now over.</p><p>The test session will start in 2 minutes.<p><p>You can use these two minutes to relaxe your eyes.</p><p> <br> </p><p>Seconds remaining:</p><p> <br> </p>114","","","","","null","","","","","","","","","",""
"html-keyboard-response","338","1032629","0.0-6.0-7.0","","null","<p>Your practice session is now over.</p><p>The test session will start in 2 minutes.<p><p>You can use these two minutes to relaxe your eyes.</p><p> <br> </p><p>Seconds remaining:</p><p> <br> </p>113","","","","","null","","","","","","","","","",""
"html-keyboard-response","339","1033632","0.0-6.0-8.0","","null","<p>Your practice session is now over.</p><p>The test session will start in 2 minutes.<p><p>You can use these two minutes to relaxe your eyes.</p><p> <br> </p><p>Seconds remaining:</p><p> <br> </p>112","","","","","null","","","","","","","","","",""
"html-keyboard-response","340","1034633","0.0-6.0-9.0","","null","<p>Your practice session is now over.</p><p>The test session will start in 2 minutes.<p><p>You can use these two minutes to relaxe your eyes.</p><p> <br> </p><p>Seconds remaining:</p><p> <br> </p>111","","","","","null","","","","","","","","","",""
"html-keyboard-response","341","1035634","0.0-6.0-10.0","","null","<p>Your practice session is now over.</p><p>The test session will start in 2 minutes.<p><p>You can use these two minutes to relaxe your eyes.</p><p> <br> </p><p>Seconds remaining:</p><p> <br> </p>110","","","","","null","","","","","","","","","",""
"html-keyboard-response","342","1036641","0.0-6.0-11.0","","null","<p>Your practice session is now over.</p><p>The test session will start in 2 minutes.<p><p>You can use these two minutes to relaxe your eyes.</p><p> <br> </p><p>Seconds remaining:</p><p> <br> </p>109","","","","","null","","","","","","","","","",""
"html-keyboard-response","343","1037643","0.0-6.0-12.0","","null","<p>Your practice session is now over.</p><p>The test session will start in 2 minutes.<p><p>You can use these two minutes to relaxe your eyes.</p><p> <br> </p><p>Seconds remaining:</p><p> <br> </p>108","","","","","null","","","","","","","","","",""
"html-keyboard-response","344","1038651","0.0-6.0-13.0","","null","<p>Your practice session is now over.</p><p>The test session will start in 2 minutes.<p><p>You can use these two minutes to relaxe your eyes.</p><p> <br> </p><p>Seconds remaining:</p><p> <br> </p>107","","","","","null","","","","","","","","","",""
"html-keyboard-response","345","1039654","0.0-6.0-14.0","","null","<p>Your practice session is now over.</p><p>The test session will start in 2 minutes.<p><p>You can use these two minutes to relaxe your eyes.</p><p> <br> </p><p>Seconds remaining:</p><p> <br> </p>106","","","","","null","","","","","","","","","",""
"html-keyboard-response","346","1041086","0.0-6.0-15.0","","null","<p>Your practice session is now over.</p><p>The test session will start in 2 minutes.<p><p>You can use these two minutes to relaxe your eyes.</p><p> <br> </p><p>Seconds remaining:</p><p> <br> </p>105","","","","","null","","","","","","","","","",""
"html-keyboard-response","347","1043085","0.0-6.0-16.0","","null","<p>Your practice session is now over.</p><p>The test session will start in 2 minutes.<p><p>You can use these two minutes to relaxe your eyes.</p><p> <br> </p><p>Seconds remaining:</p><p> <br> </p>104","","","","","null","","","","","","","","","",""
"html-keyboard-response","348","1045081","0.0-6.0-17.0","","null","<p>Your practice session is now over.</p><p>The test session will start in 2 minutes.<p><p>You can use these two minutes to relaxe your eyes.</p><p> <br> </p><p>Seconds remaining:</p><p> <br> </p>103","","","","","null","","","","","","","","","",""
"html-keyboard-response","349","1046636","0.0-6.0-18.0","","null","<p>Your practice session is now over.</p><p>The test session will start in 2 minutes.<p><p>You can use these two minutes to relaxe your eyes.</p><p> <br> </p><p>Seconds remaining:</p><p> <br> </p>102","","","","","null","","","","","","","","","",""
"html-keyboard-response","350","1047637","0.0-6.0-19.0","","null","<p>Your practice session is now over.</p><p>The test session will start in 2 minutes.<p><p>You can use these two minutes to relaxe your eyes.</p><p> <br> </p><p>Seconds remaining:</p><p> <br> </p>101","","","","","null","","","","","","","","","",""
"html-keyboard-response","351","1048640","0.0-6.0-20.0","","null","<p>Your practice session is now over.</p><p>The test session will start in 2 minutes.<p><p>You can use these two minutes to relaxe your eyes.</p><p> <br> </p><p>Seconds remaining:</p><p> <br> </p>100","","","","","null","","","","","","","","","",""
"html-keyboard-response","352","1049642","0.0-6.0-21.0","","null","<p>Your practice session is now over.</p><p>The test session will start in 2 minutes.<p><p>You can use these two minutes to relaxe your eyes.</p><p> <br> </p><p>Seconds remaining:</p><p> <br> </p>99","","","","","null","","","","","","","","","",""
"html-keyboard-response","353","1051074","0.0-6.0-22.0","","null","<p>Your practice session is now over.</p><p>The test session will start in 2 minutes.<p><p>You can use these two minutes to relaxe your eyes.</p><p> <br> </p><p>Seconds remaining:</p><p> <br> </p>98","","","","","null","","","","","","","","","",""
"html-keyboard-response","354","1052086","0.0-6.0-23.0","","null","<p>Your practice session is now over.</p><p>The test session will start in 2 minutes.<p><p>You can use these two minutes to relaxe your eyes.</p><p> <br> </p><p>Seconds remaining:</p><p> <br> </p>97","","","","","null","","","","","","","","","",""
"html-keyboard-response","355","1054099","0.0-6.0-24.0","","null","<p>Your practice session is now over.</p><p>The test session will start in 2 minutes.<p><p>You can use these two minutes to relaxe your eyes.</p><p> <br> </p><p>Seconds remaining:</p><p> <br> </p>96","","","","","null","","","","","","","","","",""
"html-keyboard-response","356","1056077","0.0-6.0-25.0","","null","<p>Your practice session is now over.</p><p>The test session will start in 2 minutes.<p><p>You can use these two minutes to relaxe your eyes.</p><p> <br> </p><p>Seconds remaining:</p><p> <br> </p>95","","","","","null","","","","","","","","","",""
"html-keyboard-response","357","1057123","0.0-6.0-26.0","","null","<p>Your practice session is now over.</p><p>The test session will start in 2 minutes.<p><p>You can use these two minutes to relaxe your eyes.</p><p> <br> </p><p>Seconds remaining:</p><p> <br> </p>94","","","","","null","","","","","","","","","",""
"html-keyboard-response","358","1059087","0.0-6.0-27.0","","null","<p>Your practice session is now over.</p><p>The test session will start in 2 minutes.<p><p>You can use these two minutes to relaxe your eyes.</p><p> <br> </p><p>Seconds remaining:</p><p> <br> </p>93","","","","","null","","","","","","","","","",""
"html-keyboard-response","359","1061086","0.0-6.0-28.0","","null","<p>Your practice session is now over.</p><p>The test session will start in 2 minutes.<p><p>You can use these two minutes to relaxe your eyes.</p><p> <br> </p><p>Seconds remaining:</p><p> <br> </p>92","","","","","null","","","","","","","","","",""
"html-keyboard-response","360","1063081","0.0-6.0-29.0","","null","<p>Your practice session is now over.</p><p>The test session will start in 2 minutes.<p><p>You can use these two minutes to relaxe your eyes.</p><p> <br> </p><p>Seconds remaining:</p><p> <br> </p>91","","","","","null","","","","","","","","","",""
"html-keyboard-response","361","1065082","0.0-6.0-30.0","","null","<p>Your practice session is now over.</p><p>The test session will start in 2 minutes.<p><p>You can use these two minutes to relaxe your eyes.</p><p> <br> </p><p>Seconds remaining:</p><p> <br> </p>90","","","","","null","","","","","","","","","",""
"html-keyboard-response","362","1066133","0.0-6.0-31.0","","null","<p>Your practice session is now over.</p><p>The test session will start in 2 minutes.<p><p>You can use these two minutes to relaxe your eyes.</p><p> <br> </p><p>Seconds remaining:</p><p> <br> </p>89","","","","","null","","","","","","","","","",""
"html-keyboard-response","363","1068081","0.0-6.0-32.0","","null","<p>Your practice session is now over.</p><p>The test session will start in 2 minutes.<p><p>You can use these two minutes to relaxe your eyes.</p><p> <br> </p><p>Seconds remaining:</p><p> <br> </p>88","","","","","null","","","","","","","","","",""
"html-keyboard-response","364","1069088","0.0-6.0-33.0","","null","<p>Your practice session is now over.</p><p>The test session will start in 2 minutes.<p><p>You can use these two minutes to relaxe your eyes.</p><p> <br> </p><p>Seconds remaining:</p><p> <br> </p>87","","","","","null","","","","","","","","","",""
"html-keyboard-response","365","1070196","0.0-6.0-34.0","","null","<p>Your practice session is now over.</p><p>The test session will start in 2 minutes.<p><p>You can use these two minutes to relaxe your eyes.</p><p> <br> </p><p>Seconds remaining:</p><p> <br> </p>86","","","","","null","","","","","","","","","",""
"html-keyboard-response","366","1072090","0.0-6.0-35.0","","null","<p>Your practice session is now over.</p><p>The test session will start in 2 minutes.<p><p>You can use these two minutes to relaxe your eyes.</p><p> <br> </p><p>Seconds remaining:</p><p> <br> </p>85","","","","","null","","","","","","","","","",""
"html-keyboard-response","367","1073129","0.0-6.0-36.0","","null","<p>Your practice session is now over.</p><p>The test session will start in 2 minutes.<p><p>You can use these two minutes to relaxe your eyes.</p><p> <br> </p><p>Seconds remaining:</p><p> <br> </p>84","","","","","null","","","","","","","","","",""
"html-keyboard-response","368","1075091","0.0-6.0-37.0","","null","<p>Your practice session is now over.</p><p>The test session will start in 2 minutes.<p><p>You can use these two minutes to relaxe your eyes.</p><p> <br> </p><p>Seconds remaining:</p><p> <br> </p>83","","","","","null","","","","","","","","","",""
"html-keyboard-response","369","1077094","0.0-6.0-38.0","","null","<p>Your practice session is now over.</p><p>The test session will start in 2 minutes.<p><p>You can use these two minutes to relaxe your eyes.</p><p> <br> </p><p>Seconds remaining:</p><p> <br> </p>82","","","","","null","","","","","","","","","",""
"html-keyboard-response","370","1078134","0.0-6.0-39.0","","null","<p>Your practice session is now over.</p><p>The test session will start in 2 minutes.<p><p>You can use these two minutes to relaxe your eyes.</p><p> <br> </p><p>Seconds remaining:</p><p> <br> </p>81","","","","","null","","","","","","","","","",""
"html-keyboard-response","371","1080084","0.0-6.0-40.0","","null","<p>Your practice session is now over.</p><p>The test session will start in 2 minutes.<p><p>You can use these two minutes to relaxe your eyes.</p><p> <br> </p><p>Seconds remaining:</p><p> <br> </p>80","","","","","null","","","","","","","","","",""
"html-keyboard-response","372","1081089","0.0-6.0-41.0","","null","<p>Your practice session is now over.</p><p>The test session will start in 2 minutes.<p><p>You can use these two minutes to relaxe your eyes.</p><p> <br> </p><p>Seconds remaining:</p><p> <br> </p>79","","","","","null","","","","","","","","","",""
"html-keyboard-response","373","1083088","0.0-6.0-42.0","","null","<p>Your practice session is now over.</p><p>The test session will start in 2 minutes.<p><p>You can use these two minutes to relaxe your eyes.</p><p> <br> </p><p>Seconds remaining:</p><p> <br> </p>78","","","","","null","","","","","","","","","",""
"html-keyboard-response","374","1085075","0.0-6.0-43.0","","null","<p>Your practice session is now over.</p><p>The test session will start in 2 minutes.<p><p>You can use these two minutes to relaxe your eyes.</p><p> <br> </p><p>Seconds remaining:</p><p> <br> </p>77","","","","","null","","","","","","","","","",""
"html-keyboard-response","375","1086159","0.0-6.0-44.0","","null","<p>Your practice session is now over.</p><p>The test session will start in 2 minutes.<p><p>You can use these two minutes to relaxe your eyes.</p><p> <br> </p><p>Seconds remaining:</p><p> <br> </p>76","","","","","null","","","","","","","","","",""
"html-keyboard-response","376","1088138","0.0-6.0-45.0","","null","<p>Your practice session is now over.</p><p>The test session will start in 2 minutes.<p><p>You can use these two minutes to relaxe your eyes.</p><p> <br> </p><p>Seconds remaining:</p><p> <br> </p>75","","","","","null","","","","","","","","","",""
"html-keyboard-response","377","1090076","0.0-6.0-46.0","","null","<p>Your practice session is now over.</p><p>The test session will start in 2 minutes.<p><p>You can use these two minutes to relaxe your eyes.</p><p> <br> </p><p>Seconds remaining:</p><p> <br> </p>74","","","","","null","","","","","","","","","",""
"html-keyboard-response","378","1092084","0.0-6.0-47.0","","null","<p>Your practice session is now over.</p><p>The test session will start in 2 minutes.<p><p>You can use these two minutes to relaxe your eyes.</p><p> <br> </p><p>Seconds remaining:</p><p> <br> </p>73","","","","","null","","","","","","","","","",""
"html-keyboard-response","379","1094078","0.0-6.0-48.0","","null","<p>Your practice session is now over.</p><p>The test session will start in 2 minutes.<p><p>You can use these two minutes to relaxe your eyes.</p><p> <br> </p><p>Seconds remaining:</p><p> <br> </p>72","","","","","null","","","","","","","","","",""
"html-keyboard-response","380","1095080","0.0-6.0-49.0","","null","<p>Your practice session is now over.</p><p>The test session will start in 2 minutes.<p><p>You can use these two minutes to relaxe your eyes.</p><p> <br> </p><p>Seconds remaining:</p><p> <br> </p>71","","","","","null","","","","","","","","","",""
"html-keyboard-response","381","1096081","0.0-6.0-50.0","","null","<p>Your practice session is now over.</p><p>The test session will start in 2 minutes.<p><p>You can use these two minutes to relaxe your eyes.</p><p> <br> </p><p>Seconds remaining:</p><p> <br> </p>70","","","","","null","","","","","","","","","",""
"html-keyboard-response","382","1098073","0.0-6.0-51.0","","null","<p>Your practice session is now over.</p><p>The test session will start in 2 minutes.<p><p>You can use these two minutes to relaxe your eyes.</p><p> <br> </p><p>Seconds remaining:</p><p> <br> </p>69","","","","","null","","","","","","","","","",""
"html-keyboard-response","383","1099090","0.0-6.0-52.0","","null","<p>Your practice session is now over.</p><p>The test session will start in 2 minutes.<p><p>You can use these two minutes to relaxe your eyes.</p><p> <br> </p><p>Seconds remaining:</p><p> <br> </p>68","","","","","null","","","","","","","","","",""
"html-keyboard-response","384","1101087","0.0-6.0-53.0","","null","<p>Your practice session is now over.</p><p>The test session will start in 2 minutes.<p><p>You can use these two minutes to relaxe your eyes.</p><p> <br> </p><p>Seconds remaining:</p><p> <br> </p>67","","","","","null","","","","","","","","","",""
