"trial_type","trial_index","time_elapsed","internal_node_id","success","rt","stimulus","button_pressed","responses","training_vector","training_matrixRow","key_press","test_part","correct_response","test_number","test_vector","correct","image_switchboard","scene_order","participant","study","session"
"pavlovia","0","8","0.0-0.0","","","","","","","","","","","","","","","","","",""
"fullscreen","1","6294","0.0-1.0","true","","","","","","","","","","","","","","","","",""
"html-button-response","2","203183","0.0-2.0","","196884.5","<p style=""text-align: justify;margin-left: 15%; margin-right:15%"">You are participating in an experiment at the Vision Lab of the Department of Cognitive Science, Central European University.  One of our main questions is what kind of representations we can create about our visual environment and how these representations influence our behavior. At our lab we use multiple methods, for example behavioral experiments and computational models. In this experiment you will observe scenes consisting of abstract shapes and answer simple questions about them. <br><br>At the beginning and throughout the experiment you will receive precise information about what to do. The experiment takes about 25 minutes in total. <br><br>The test is voluntary, and you can withdraw your participation at any time. We treat your personal information confidentially. <br>Only those people who work on this research project have access to your data. We will work with group level statistics. We will only report the results of the group in scientific publications and conferences. This research was approved by the Hungarian Psychological Research Ethics Committee.<br><br>If you have any further questions about the study, you can contact the experimenter, Beata Tunde Szabo, PhD Student. Contact: 1051 Nador u. 11. E-mail: szabo_beata-tunde@phd.ceu.edu <br><br>By pressing the button below you indicate that you read this information, found it sufficent, and you consent to participate in the experiment. <br><br> </p>","0","","","","","","","","","","","","","",""
"survey-html-form","3","219798","0.0-3.0","","16611.899999976158","","","{""Age"":""62"",""gender"":""Female"",""gender_other"":""""}","","","","","","","","","","","","",""
"html-button-response","4","250142","0.0-4.0","","30341.399999976158","<p style=""text-align: justify;margin-left: 15%; margin-right:15%""> This is your practice session. You will see a checkerboard with random simple shapes appearing in different positions in the checkerboard. Your task is simply to observe the patterns so that you would be able to answer some questions about the sequence after the practice session.  The session will last for about 15 minutes.  Please, pay attention to EACH display! <br><br>Occasionally, there will be an attention check asking you to press the spacebar. ","0","","","","","","","","","","","","","",""
"vsl-grid-scene-snap","5","252147","0.0-5.0-0.0-0.0","","","[[0,""img/obj5.png"",""img/obj8.png""],[0,""img/obj3.png"",""img/obj12.png""],[""img/obj7.png"",0,""img/obj6.png""]]","","","3,2,2,2,1,4,2,2,5","123","","","","","","","","","","",""
"vsl-grid-scene-snap","6","255156","0.0-5.0-0.0-1.0","","","[[""img/obj9.png"",""img/obj5.png"",""img/obj8.png""],[""img/obj1.png"",""img/obj11.png"",0],[""img/obj4.png"",0,0]]","","","1,2,1,2,1,4,1,1,6","42","","","","","","","","","","",""
"vsl-grid-scene-snap","7","258166","0.0-5.0-0.0-2.0","","","[[0,0,""img/obj3.png""],[""img/obj1.png"",""img/obj7.png"",0],[""img/obj4.png"",""img/obj10.png"",""img/obj2.png""]]","","","1,2,1,2,3,3,3,1,5","48","","","","","","","","","","",""
"vsl-grid-scene-snap","8","261174","0.0-5.0-0.0-3.0","","","[[""img/obj12.png"",0,""img/obj3.png""],[""img/obj6.png"",""img/obj7.png"",0],[""img/obj10.png"",""img/obj2.png"",0]]","","","1,1,2,1,3,3,3,1,5","25","","","","","","","","","","",""
"vsl-grid-scene-snap","9","264181","0.0-5.0-0.0-4.0","","","[[0,0,""img/obj3.png""],[0,""img/obj7.png"",""img/obj1.png""],[""img/obj10.png"",""img/obj2.png"",""img/obj4.png""]]","","","3,2,1,1,3,3,3,1,5","140","","","","","","","","","","",""
"vsl-grid-scene-snap","10","267190","0.0-5.0-0.0-5.0","","","[[""img/obj10.png"",""img/obj2.png"",0],[0,""img/obj3.png"",""img/obj1.png""],[""img/obj7.png"",0,""img/obj4.png""]]","","","3,2,1,1,1,3,2,2,5","108","","","","","","","","","","",""
"vsl-grid-scene-snap","11","270198","0.0-5.0-0.0-6.0","","","[[0,""img/obj3.png"",""img/obj12.png""],[""img/obj7.png"",0,""img/obj6.png""],[0,""img/obj10.png"",""img/obj2.png""]]","","","3,1,2,2,3,3,2,1,5","89","","","","","","","","","","",""
"vsl-grid-scene-snap","12","273207","0.0-5.0-0.0-7.0","","","[[""img/obj9.png"",""img/obj10.png"",""img/obj2.png""],[""img/obj1.png"",""img/obj11.png"",0],[""img/obj4.png"",0,0]]","","","1,2,1,2,1,3,1,1,6","40","","","","","","","","","","",""
"vsl-grid-scene-snap","13","276215","0.0-5.0-0.0-8.0","","","[[""img/obj10.png"",""img/obj2.png"",0],[""img/obj1.png"",""img/obj9.png"",0],[""img/obj4.png"",0,""img/obj11.png""]]","","","1,2,1,1,1,3,2,2,6","68","","","","","","","","","","",""
"vsl-grid-scene-snap","14","279223","0.0-5.0-0.0-9.0","","","[[""img/obj12.png"",""img/obj10.png"",""img/obj2.png""],[""img/obj6.png"",""img/obj9.png"",0],[0,0,""img/obj11.png""]]","","","1,1,2,2,1,3,2,2,6","9","","","","","","","","","","",""
"vsl-grid-scene-snap","15","282232","0.0-5.0-0.0-10.0","","","[[""img/obj12.png"",""img/obj5.png"",""img/obj8.png""],[""img/obj6.png"",0,""img/obj3.png""],[0,""img/obj7.png"",0]]","","","1,1,2,2,1,4,3,2,5","3","","","","","","","","","","",""
"vsl-grid-scene-snap","16","285240","0.0-5.0-0.0-11.0","","","[[0,0,""img/obj3.png""],[""img/obj12.png"",""img/obj7.png"",0],[""img/obj6.png"",""img/obj5.png"",""img/obj8.png""]]","","","1,2,2,2,3,4,3,1,5","51","","","","","","","","","","",""
"vsl-grid-scene-snap","17","288249","0.0-5.0-0.0-12.0","","","[[""img/obj5.png"",""img/obj8.png"",""img/obj12.png""],[0,""img/obj3.png"",""img/obj6.png""],[""img/obj7.png"",0,0]]","","","3,1,2,1,1,4,2,2,5","75","","","","","","","","","","",""
"vsl-grid-scene-snap","18","291258","0.0-5.0-0.0-13.0","","","[[0,""img/obj10.png"",""img/obj2.png""],[""img/obj12.png"",0,""img/obj3.png""],[""img/obj6.png"",""img/obj7.png"",0]]","","","1,2,2,2,1,3,3,2,5","37","","","","","","","","","","",""
"vsl-grid-scene-snap","19","294267","0.0-5.0-0.0-14.0","","","[[0,""img/obj5.png"",""img/obj8.png""],[""img/obj12.png"",0,""img/obj3.png""],[""img/obj6.png"",""img/obj7.png"",0]]","","","1,2,2,2,1,4,3,2,5","39","","","","","","","","","","",""
"vsl-grid-scene-snap","20","297275","0.0-5.0-0.0-15.0","","","[[0,""img/obj5.png"",""img/obj8.png""],[""img/obj1.png"",0,""img/obj3.png""],[""img/obj4.png"",""img/obj7.png"",0]]","","","1,2,1,2,1,4,3,2,5","38","","","","","","","","","","",""
"vsl-grid-scene-snap","21","300284","0.0-5.0-0.0-16.0","","","[[0,0,""img/obj12.png""],[0,""img/obj3.png"",""img/obj6.png""],[""img/obj7.png"",""img/obj10.png"",""img/obj2.png""]]","","","3,1,2,2,3,3,2,2,5","85","","","","","","","","","","",""
"vsl-grid-scene-snap","22","303298","0.0-5.0-0.0-17.0","","","[[0,0,""img/obj3.png""],[0,""img/obj7.png"",""img/obj12.png""],[""img/obj5.png"",""img/obj8.png"",""img/obj6.png""]]","","","3,2,2,1,3,4,3,1,5","143","","","","","","","","","","",""
"vsl-grid-scene-snap","23","306316","0.0-5.0-0.0-18.0","","","[[""img/obj12.png"",""img/obj9.png"",0],[""img/obj6.png"",0,""img/obj11.png""],[""img/obj5.png"",""img/obj8.png"",0]]","","","1,1,2,1,3,4,2,1,6","31","","","","","","","","","","",""
"vsl-grid-scene-snap","24","309325","0.0-5.0-0.0-19.0","","","[[""img/obj1.png"",""img/obj10.png"",""img/obj2.png""],[""img/obj4.png"",""img/obj3.png"",0],[""img/obj7.png"",0,0]]","","","1,1,1,2,1,3,2,2,5","4","","","","","","","","","","",""
"vsl-grid-scene-snap","25","312333","0.0-5.0-0.0-20.0","","","[[0,""img/obj10.png"",""img/obj2.png""],[0,""img/obj3.png"",""img/obj1.png""],[""img/obj7.png"",0,""img/obj4.png""]]","","","3,2,1,2,1,3,2,2,5","120","","","","","","","","","","",""
"vsl-grid-scene-snap","26","315341","0.0-5.0-0.0-21.0","","","[[0,""img/obj3.png"",""img/obj1.png""],[""img/obj7.png"",0,""img/obj4.png""],[0,""img/obj10.png"",""img/obj2.png""]]","","","3,1,1,2,3,3,2,1,5","88","","","","","","","","","","",""
"vsl-grid-scene-snap","27","318348","0.0-5.0-0.0-22.0","","","[[""img/obj12.png"",""img/obj9.png"",0],[""img/obj6.png"",0,""img/obj11.png""],[0,""img/obj5.png"",""img/obj8.png""]]","","","1,1,2,2,3,4,2,1,6","23","","","","","","","","","","",""
"vsl-grid-scene-snap","28","321356","0.0-5.0-0.0-23.0","","","[[""img/obj9.png"",0,""img/obj1.png""],[0,""img/obj11.png"",""img/obj4.png""],[""img/obj10.png"",""img/obj2.png"",0]]","","","3,1,1,1,3,3,1,1,6","100","","","","","","","","","","",""
"vsl-grid-scene-snap","29","324364","0.0-5.0-0.0-24.0","","","[[""img/obj5.png"",""img/obj8.png"",0],[""img/obj9.png"",0,""img/obj1.png""],[0,""img/obj11.png"",""img/obj4.png""]]","","","3,2,1,1,1,4,1,2,6","114","","","","","","","","","","",""
"vsl-grid-scene-snap","30","327372","0.0-5.0-0.0-25.0","","","[[""img/obj10.png"",""img/obj2.png"",""img/obj1.png""],[0,""img/obj9.png"",""img/obj4.png""],[0,0,""img/obj11.png""]]","","","3,1,1,1,1,3,2,2,6","80","","","","","","","","","","",""
"vsl-grid-scene-snap","31","330380","0.0-5.0-0.0-26.0","","","[[""img/obj1.png"",0,""img/obj3.png""],[""img/obj4.png"",""img/obj7.png"",0],[""img/obj10.png"",""img/obj2.png"",0]]","","","1,1,1,1,3,3,3,1,5","24","","","","","","","","","","",""
"vsl-grid-scene-snap","32","333404","0.0-5.0-0.0-27.0","","","[[0,""img/obj3.png"",""img/obj1.png""],[""img/obj7.png"",0,""img/obj4.png""],[""img/obj5.png"",""img/obj8.png"",0]]","","","3,1,1,1,3,4,2,1,5","98","","","","","","","","","","",""
"vsl-grid-scene-snap","33","336413","0.0-5.0-0.0-28.0","","","[[""img/obj1.png"",""img/obj9.png"",0],[""img/obj4.png"",0,""img/obj11.png""],[""img/obj10.png"",""img/obj2.png"",0]]","","","1,1,1,1,3,3,2,1,6","28","","","","","","","","","","",""
"vsl-grid-scene-snap","34","339421","0.0-5.0-0.0-29.0","","","[[""img/obj1.png"",0,""img/obj3.png""],[""img/obj4.png"",""img/obj7.png"",0],[0,""img/obj10.png"",""img/obj2.png""]]","","","1,1,1,2,3,3,3,1,5","12","","","","","","","","","","",""
"vsl-grid-scene-snap","35","342429","0.0-5.0-0.0-30.0","","","[[""img/obj10.png"",""img/obj2.png"",""img/obj3.png""],[""img/obj12.png"",""img/obj7.png"",0],[""img/obj6.png"",0,0]]","","","1,2,2,1,1,3,3,1,5","65","","","","","","","","","","",""
"vsl-grid-scene-snap","36","345443","0.0-5.0-0.0-31.0","","","[[0,""img/obj10.png"",""img/obj2.png""],[""img/obj1.png"",0,""img/obj3.png""],[""img/obj4.png"",""img/obj7.png"",0]]","","","1,2,1,2,1,3,3,2,5","36","","","","","","","","","","",""
"vsl-grid-scene-snap","37","348463","0.0-5.0-0.0-32.0","","","[[0,0,""img/obj1.png""],[0,""img/obj9.png"",""img/obj4.png""],[""img/obj10.png"",""img/obj2.png"",""img/obj11.png""]]","","","3,1,1,1,3,3,2,2,6","104","","","","","","","","","","",""
"vsl-grid-scene-snap","38","351473","0.0-5.0-0.0-33.0","","","[[""img/obj1.png"",""img/obj9.png"",0],[""img/obj4.png"",0,""img/obj11.png""],[0,""img/obj5.png"",""img/obj8.png""]]","","","1,1,1,2,3,4,2,1,6","22","","","","","","","","","","",""
"vsl-grid-scene-snap","39","354483","0.0-5.0-0.0-34.0","","","[[0,""img/obj5.png"",""img/obj8.png""],[""img/obj1.png"",""img/obj9.png"",0],[""img/obj4.png"",0,""img/obj11.png""]]","","","1,2,1,2,1,4,2,2,6","46","","","","","","","","","","",""
"vsl-grid-scene-snap","40","357492","0.0-5.0-0.0-35.0","","","[[""img/obj1.png"",""img/obj10.png"",""img/obj2.png""],[""img/obj4.png"",0,""img/obj3.png""],[0,""img/obj7.png"",0]]","","","1,1,1,2,1,3,3,2,5","0","","","","","","","","","","",""
"vsl-grid-scene-snap","41","360502","0.0-5.0-0.0-36.0","","","[[0,0,""img/obj1.png""],[0,""img/obj9.png"",""img/obj4.png""],[""img/obj5.png"",""img/obj8.png"",""img/obj11.png""]]","","","3,1,1,1,3,4,2,2,6","106","","","","","","","","","","",""
"vsl-grid-scene-snap","42","363511","0.0-5.0-0.0-37.0","","","[[""img/obj5.png"",""img/obj8.png"",0],[0,""img/obj3.png"",""img/obj1.png""],[""img/obj7.png"",0,""img/obj4.png""]]","","","3,2,1,1,1,4,2,2,5","110","","","","","","","","","","",""
"vsl-grid-scene-snap","43","366521","0.0-5.0-0.0-38.0","","","[[""img/obj9.png"",""img/obj5.png"",""img/obj8.png""],[""img/obj12.png"",""img/obj11.png"",0],[""img/obj6.png"",0,0]]","","","1,2,2,2,1,4,1,1,6","43","","","","","","","","","","",""
"vsl-grid-scene-snap","44","369531","0.0-5.0-0.0-39.0","","","[[0,""img/obj10.png"",""img/obj2.png""],[0,""img/obj3.png"",""img/obj12.png""],[""img/obj7.png"",0,""img/obj6.png""]]","","","3,2,2,2,1,3,2,2,5","121","","","","","","","","","","",""
"vsl-grid-scene-snap","45","372541","0.0-5.0-0.0-40.0","","","[[""img/obj9.png"",0,0],[""img/obj12.png"",""img/obj11.png"",0],[""img/obj6.png"",""img/obj10.png"",""img/obj2.png""]]","","","1,2,2,2,3,3,1,1,6","57","","","","","","","","","","",""
"vsl-grid-scene-snap","46","375571","0.0-5.0-0.0-41.0","","","[[0,""img/obj9.png"",0],[""img/obj1.png"",0,""img/obj11.png""],[""img/obj4.png"",""img/obj10.png"",""img/obj2.png""]]","","","1,2,1,2,3,3,2,1,6","52","","","","","","","","","","",""
"vsl-grid-scene-snap","47","378580","0.0-5.0-0.0-42.0","","","[[""img/obj9.png"",0,""img/obj1.png""],[0,""img/obj11.png"",""img/obj4.png""],[0,""img/obj10.png"",""img/obj2.png""]]","","","3,1,1,2,3,3,1,1,6","92","","","","","","","","","","",""
"vsl-grid-scene-snap","48","381589","0.0-5.0-0.0-43.0","","","[[""img/obj1.png"",0,""img/obj3.png""],[""img/obj4.png"",""img/obj7.png"",0],[0,""img/obj5.png"",""img/obj8.png""]]","","","1,1,1,2,3,4,3,1,5","14","","","","","","","","","","",""
"vsl-grid-scene-snap","49","384598","0.0-5.0-0.0-44.0","","","[[0,0,""img/obj12.png""],[0,""img/obj3.png"",""img/obj6.png""],[""img/obj7.png"",""img/obj5.png"",""img/obj8.png""]]","","","3,1,2,2,3,4,2,2,5","87","","","","","","","","","","",""
"vsl-grid-scene-snap","50","387607","0.0-5.0-0.0-45.0","","","[[0,0,""img/obj3.png""],[""img/obj12.png"",""img/obj7.png"",0],[""img/obj6.png"",""img/obj10.png"",""img/obj2.png""]]","","","1,2,2,2,3,3,3,1,5","49","","","","","","","","","","",""
"vsl-grid-scene-snap","51","390616","0.0-5.0-0.0-46.0","","","[[""img/obj9.png"",0,0],[0,""img/obj11.png"",""img/obj12.png""],[""img/obj10.png"",""img/obj2.png"",""img/obj6.png""]]","","","3,2,2,1,3,3,1,1,6","137","","","","","","","","","","",""
"vsl-grid-scene-snap","52","393625","0.0-5.0-0.0-47.0","","","[[""img/obj12.png"",0,0],[""img/obj6.png"",""img/obj9.png"",0],[""img/obj10.png"",""img/obj2.png"",""img/obj11.png""]]","","","1,1,2,1,3,3,2,2,6","33","","","","","","","","","","",""
"vsl-grid-attention-check","53","395604","0.0-5.0-1.0-0.0-0.0","","971.6999999880791","[[0,0,0],[""img/square.png"",""img/attention.png"",""img/square.png""],[""img/square.png"",""img/square.png"",""img/square.png""]]","","","","","32","","","","","","","","","",""
"html-keyboard-response","54","396611","0.0-5.0-1.0-1.0","","null"," ","","","","","null","","","","","","","","","",""
"vsl-grid-scene-snap","55","398618","0.0-5.0-2.0-0.0","","","[[""img/obj1.png"",""img/obj9.png"",0],[""img/obj4.png"",0,""img/obj11.png""],[0,""img/obj10.png"",""img/obj2.png""]]","","","1,1,1,2,3,3,2,1,6","20","","","","","","","","","","",""
"vsl-grid-scene-snap","56","401633","0.0-5.0-2.0-1.0","","","[[""img/obj12.png"",0,0],[""img/obj6.png"",""img/obj3.png"",0],[""img/obj7.png"",""img/obj10.png"",""img/obj2.png""]]","","","1,1,2,2,3,3,2,2,5","17","","","","","","","","","","",""
"vsl-grid-scene-snap","57","404658","0.0-5.0-2.0-2.0","","","[[0,""img/obj3.png"",""img/obj12.png""],[""img/obj7.png"",0,""img/obj6.png""],[""img/obj10.png"",""img/obj2.png"",0]]","","","3,1,2,1,3,3,2,1,5","97","","","","","","","","","","",""
"vsl-grid-scene-snap","58","407667","0.0-5.0-2.0-3.0","","","[[""img/obj12.png"",""img/obj10.png"",""img/obj2.png""],[""img/obj6.png"",""img/obj3.png"",0],[""img/obj7.png"",0,0]]","","","1,1,2,2,1,3,2,2,5","5","","","","","","","","","","",""
"vsl-grid-scene-snap","59","410676","0.0-5.0-2.0-4.0","","","[[""img/obj9.png"",0,""img/obj12.png""],[0,""img/obj11.png"",""img/obj6.png""],[""img/obj10.png"",""img/obj2.png"",0]]","","","3,1,2,1,3,3,1,1,6","101","","","","","","","","","","",""
"vsl-grid-scene-snap","60","413684","0.0-5.0-2.0-5.0","","","[[0,""img/obj10.png"",""img/obj2.png""],[""img/obj1.png"",""img/obj9.png"",0],[""img/obj4.png"",0,""img/obj11.png""]]","","","1,2,1,2,1,3,2,2,6","44","","","","","","","","","","",""
"vsl-grid-scene-snap","61","416693","0.0-5.0-2.0-6.0","","","[[0,""img/obj3.png"",0],[""img/obj7.png"",0,""img/obj1.png""],[""img/obj10.png"",""img/obj2.png"",""img/obj4.png""]]","","","3,2,1,1,3,3,2,1,5","132","","","","","","","","","","",""
"vsl-grid-scene-snap","62","419703","0.0-5.0-2.0-7.0","","","[[""img/obj12.png"",0,0],[""img/obj6.png"",""img/obj3.png"",0],[""img/obj7.png"",""img/obj5.png"",""img/obj8.png""]]","","","1,1,2,2,3,4,2,2,5","19","","","","","","","","","","",""
"vsl-grid-scene-snap","63","422711","0.0-5.0-2.0-8.0","","","[[""img/obj12.png"",0,""img/obj3.png""],[""img/obj6.png"",""img/obj7.png"",0],[""img/obj5.png"",""img/obj8.png"",0]]","","","1,1,2,1,3,4,3,1,5","27","","","","","","","","","","",""
"vsl-grid-scene-snap","64","425721","0.0-5.0-2.0-9.0","","","[[0,""img/obj3.png"",""img/obj12.png""],[""img/obj7.png"",0,""img/obj6.png""],[0,""img/obj5.png"",""img/obj8.png""]]","","","3,1,2,2,3,4,2,1,5","91","","","","","","","","","","",""
"vsl-grid-scene-snap","65","428730","0.0-5.0-2.0-10.0","","","[[""img/obj12.png"",""img/obj10.png"",""img/obj2.png""],[""img/obj6.png"",0,""img/obj3.png""],[0,""img/obj7.png"",0]]","","","1,1,2,2,1,3,3,2,5","1","","","","","","","","","","",""
"vsl-grid-scene-snap","66","431739","0.0-5.0-2.0-11.0","","","[[0,""img/obj5.png"",""img/obj8.png""],[""img/obj9.png"",0,""img/obj1.png""],[0,""img/obj11.png"",""img/obj4.png""]]","","","3,2,1,2,1,4,1,2,6","126","","","","","","","","","","",""
"vsl-grid-scene-snap","67","434748","0.0-5.0-2.0-12.0","","","[[""img/obj10.png"",""img/obj2.png"",""img/obj1.png""],[0,""img/obj3.png"",""img/obj4.png""],[""img/obj7.png"",0,0]]","","","3,1,1,1,1,3,2,2,5","72","","","","","","","","","","",""
"vsl-grid-scene-snap","68","437757","0.0-5.0-2.0-13.0","","","[[""img/obj5.png"",""img/obj8.png"",0],[""img/obj9.png"",0,""img/obj12.png""],[0,""img/obj11.png"",""img/obj6.png""]]","","","3,2,2,1,1,4,1,2,6","115","","","","","","","","","","",""
"vsl-grid-scene-snap","69","440766","0.0-5.0-2.0-14.0","","","[[0,0,""img/obj3.png""],[0,""img/obj7.png"",""img/obj1.png""],[""img/obj5.png"",""img/obj8.png"",""img/obj4.png""]]","","","3,2,1,1,3,4,3,1,5","142","","","","","","","","","","",""
"vsl-grid-scene-snap","70","443775","0.0-5.0-2.0-15.0","","","[[""img/obj9.png"",0,""img/obj1.png""],[0,""img/obj11.png"",""img/obj4.png""],[""img/obj5.png"",""img/obj8.png"",0]]","","","3,1,1,1,3,4,1,1,6","102","","","","","","","","","","",""
"vsl-grid-scene-snap","71","446784","0.0-5.0-2.0-16.0","","","[[""img/obj1.png"",""img/obj10.png"",""img/obj2.png""],[""img/obj4.png"",""img/obj9.png"",0],[0,0,""img/obj11.png""]]","","","1,1,1,2,1,3,2,2,6","8","","","","","","","","","","",""
"vsl-grid-scene-snap","72","449792","0.0-5.0-2.0-17.0","","","[[""img/obj9.png"",""img/obj10.png"",""img/obj2.png""],[0,""img/obj11.png"",""img/obj1.png""],[0,0,""img/obj4.png""]]","","","3,2,1,2,1,3,1,1,6","128","","","","","","","","","","",""
"vsl-grid-scene-snap","73","452801","0.0-5.0-2.0-18.0","","","[[""img/obj1.png"",0,0],[""img/obj4.png"",""img/obj9.png"",0],[""img/obj5.png"",""img/obj8.png"",""img/obj11.png""]]","","","1,1,1,1,3,4,2,2,6","34","","","","","","","","","","",""
"vsl-grid-scene-snap","74","455810","0.0-5.0-2.0-19.0","","","[[""img/obj12.png"",0,""img/obj3.png""],[""img/obj6.png"",""img/obj7.png"",0],[0,""img/obj5.png"",""img/obj8.png""]]","","","1,1,2,2,3,4,3,1,5","15","","","","","","","","","","",""
"vsl-grid-scene-snap","75","458818","0.0-5.0-2.0-20.0","","","[[""img/obj9.png"",0,0],[""img/obj1.png"",""img/obj11.png"",0],[""img/obj4.png"",""img/obj5.png"",""img/obj8.png""]]","","","1,2,1,2,3,4,1,1,6","58","","","","","","","","","","",""
"vsl-grid-scene-snap","76","461827","0.0-5.0-2.0-21.0","","","[[""img/obj10.png"",""img/obj2.png"",0],[0,""img/obj3.png"",""img/obj12.png""],[""img/obj7.png"",0,""img/obj6.png""]]","","","3,2,2,1,1,3,2,2,5","109","","","","","","","","","","",""
"vsl-grid-scene-snap","77","464836","0.0-5.0-2.0-22.0","","","[[""img/obj10.png"",""img/obj2.png"",0],[""img/obj9.png"",0,""img/obj12.png""],[0,""img/obj11.png"",""img/obj6.png""]]","","","3,2,2,1,1,3,1,2,6","113","","","","","","","","","","",""
"vsl-grid-scene-snap","78","467845","0.0-5.0-2.0-23.0","","","[[0,0,""img/obj1.png""],[0,""img/obj3.png"",""img/obj4.png""],[""img/obj7.png"",""img/obj10.png"",""img/obj2.png""]]","","","3,1,1,2,3,3,2,2,5","84","","","","","","","","","","",""
"vsl-grid-scene-snap","79","470853","0.0-5.0-2.0-24.0","","","[[""img/obj10.png"",""img/obj2.png"",0],[""img/obj9.png"",0,""img/obj1.png""],[0,""img/obj11.png"",""img/obj4.png""]]","","","3,2,1,1,1,3,1,2,6","112","","","","","","","","","","",""
"vsl-grid-scene-snap","80","473862","0.0-5.0-2.0-25.0","","","[[""img/obj9.png"",""img/obj5.png"",""img/obj8.png""],[0,""img/obj11.png"",""img/obj1.png""],[0,0,""img/obj4.png""]]","","","3,2,1,2,1,4,1,1,6","130","","","","","","","","","","",""
"vsl-grid-scene-snap","81","476871","0.0-5.0-2.0-26.0","","","[[0,""img/obj5.png"",""img/obj8.png""],[""img/obj12.png"",""img/obj9.png"",0],[""img/obj6.png"",0,""img/obj11.png""]]","","","1,2,2,2,1,4,2,2,6","47","","","","","","","","","","",""
"vsl-grid-scene-snap","82","479880","0.0-5.0-2.0-27.0","","","[[0,""img/obj9.png"",0],[""img/obj12.png"",0,""img/obj11.png""],[""img/obj6.png"",""img/obj10.png"",""img/obj2.png""]]","","","1,2,2,2,3,3,2,1,6","53","","","","","","","","","","",""
"vsl-grid-scene-snap","83","482889","0.0-5.0-2.0-28.0","","","[[""img/obj9.png"",0,""img/obj12.png""],[0,""img/obj11.png"",""img/obj6.png""],[0,""img/obj5.png"",""img/obj8.png""]]","","","3,1,2,2,3,4,1,1,6","95","","","","","","","","","","",""
"vsl-grid-scene-snap","84","485898","0.0-5.0-2.0-29.0","","","[[0,""img/obj3.png"",0],[""img/obj7.png"",0,""img/obj1.png""],[""img/obj5.png"",""img/obj8.png"",""img/obj4.png""]]","","","3,2,1,1,3,4,2,1,5","134","","","","","","","","","","",""
"vsl-grid-scene-snap","85","488906","0.0-5.0-2.0-30.0","","","[[""img/obj10.png"",""img/obj2.png"",""img/obj12.png""],[""img/obj9.png"",0,""img/obj6.png""],[0,""img/obj11.png"",0]]","","","3,1,2,1,1,3,1,2,6","77","","","","","","","","","","",""
"vsl-grid-scene-snap","86","491915","0.0-5.0-2.0-31.0","","","[[""img/obj12.png"",""img/obj5.png"",""img/obj8.png""],[""img/obj6.png"",""img/obj9.png"",0],[0,0,""img/obj11.png""]]","","","1,1,2,2,1,4,2,2,6","11","","","","","","","","","","",""
"vsl-grid-scene-snap","87","494924","0.0-5.0-2.0-32.0","","","[[0,0,""img/obj3.png""],[""img/obj1.png"",""img/obj7.png"",0],[""img/obj4.png"",""img/obj5.png"",""img/obj8.png""]]","","","1,2,1,2,3,4,3,1,5","50","","","","","","","","","","",""
"vsl-grid-scene-snap","88","497933","0.0-5.0-2.0-33.0","","","[[""img/obj1.png"",0,0],[""img/obj4.png"",""img/obj3.png"",0],[""img/obj7.png"",""img/obj5.png"",""img/obj8.png""]]","","","1,1,1,2,3,4,2,2,5","18","","","","","","","","","","",""
"vsl-grid-scene-snap","89","500941","0.0-5.0-2.0-34.0","","","[[""img/obj10.png"",""img/obj2.png"",""img/obj12.png""],[0,""img/obj9.png"",""img/obj6.png""],[0,0,""img/obj11.png""]]","","","3,1,2,1,1,3,2,2,6","81","","","","","","","","","","",""
"vsl-grid-scene-snap","90","503950","0.0-5.0-2.0-35.0","","","[[0,0,""img/obj3.png""],[0,""img/obj7.png"",""img/obj12.png""],[""img/obj10.png"",""img/obj2.png"",""img/obj6.png""]]","","","3,2,2,1,3,3,3,1,5","141","","","","","","","","","","",""
"vsl-grid-scene-snap","91","506959","0.0-5.0-2.0-36.0","","","[[""img/obj9.png"",0,""img/obj1.png""],[0,""img/obj11.png"",""img/obj4.png""],[0,""img/obj5.png"",""img/obj8.png""]]","","","3,1,1,2,3,4,1,1,6","94","","","","","","","","","","",""
"vsl-grid-scene-snap","92","509968","0.0-5.0-2.0-37.0","","","[[""img/obj12.png"",""img/obj9.png"",0],[""img/obj6.png"",0,""img/obj11.png""],[0,""img/obj10.png"",""img/obj2.png""]]","","","1,1,2,2,3,3,2,1,6","21","","","","","","","","","","",""
"vsl-grid-scene-snap","93","512977","0.0-5.0-2.0-38.0","","","[[0,0,""img/obj12.png""],[0,""img/obj9.png"",""img/obj6.png""],[""img/obj5.png"",""img/obj8.png"",""img/obj11.png""]]","","","3,1,2,1,3,4,2,2,6","107","","","","","","","","","","",""
"vsl-grid-scene-snap","94","515985","0.0-5.0-2.0-39.0","","","[[""img/obj1.png"",0,0],[""img/obj4.png"",""img/obj9.png"",0],[""img/obj10.png"",""img/obj2.png"",""img/obj11.png""]]","","","1,1,1,1,3,3,2,2,6","32","","","","","","","","","","",""
"vsl-grid-scene-snap","95","518994","0.0-5.0-2.0-40.0","","","[[0,0,""img/obj12.png""],[0,""img/obj9.png"",""img/obj6.png""],[""img/obj10.png"",""img/obj2.png"",""img/obj11.png""]]","","","3,1,2,1,3,3,2,2,6","105","","","","","","","","","","",""
"vsl-grid-scene-snap","96","522003","0.0-5.0-2.0-41.0","","","[[""img/obj10.png"",""img/obj2.png"",0],[""img/obj1.png"",0,""img/obj3.png""],[""img/obj4.png"",""img/obj7.png"",0]]","","","1,2,1,1,1,3,3,2,5","60","","","","","","","","","","",""
"vsl-grid-scene-snap","97","525013","0.0-5.0-2.0-42.0","","","[[""img/obj9.png"",0,0],[0,""img/obj11.png"",""img/obj1.png""],[""img/obj10.png"",""img/obj2.png"",""img/obj4.png""]]","","","3,2,1,1,3,3,1,1,6","136","","","","","","","","","","",""
"vsl-grid-scene-snap","98","528022","0.0-5.0-2.0-43.0","","","[[0,""img/obj10.png"",""img/obj2.png""],[""img/obj12.png"",""img/obj9.png"",0],[""img/obj6.png"",0,""img/obj11.png""]]","","","1,2,2,2,1,3,2,2,6","45","","","","","","","","","","",""
"vsl-grid-scene-snap","99","531031","0.0-5.0-2.0-44.0","","","[[""img/obj9.png"",""img/obj10.png"",""img/obj2.png""],[""img/obj12.png"",""img/obj11.png"",0],[""img/obj6.png"",0,0]]","","","1,2,2,2,1,3,1,1,6","41","","","","","","","","","","",""
"vsl-grid-scene-snap","100","534040","0.0-5.0-2.0-45.0","","","[[0,""img/obj10.png"",""img/obj2.png""],[""img/obj9.png"",0,""img/obj12.png""],[0,""img/obj11.png"",""img/obj6.png""]]","","","3,2,2,2,1,3,1,2,6","125","","","","","","","","","","",""
"vsl-grid-scene-snap","101","537049","0.0-5.0-2.0-46.0","","","[[0,""img/obj3.png"",""img/obj1.png""],[""img/obj7.png"",0,""img/obj4.png""],[""img/obj10.png"",""img/obj2.png"",0]]","","","3,1,1,1,3,3,2,1,5","96","","","","","","","","","","",""
"vsl-grid-scene-snap","102","540058","0.0-5.0-2.0-47.0","","","[[""img/obj10.png"",""img/obj2.png"",""img/obj3.png""],[0,""img/obj7.png"",""img/obj1.png""],[0,0,""img/obj4.png""]]","","","3,2,1,1,1,3,3,1,5","116","","","","","","","","","","",""
"vsl-grid-attention-check","103","541631","0.0-5.0-3.0-0.0-0.0","","567.7999999523163","[[""img/square.png"",""img/square.png"",0],[""img/square.png"",""img/attention.png"",""img/square.png""],[""img/square.png"",0,0]]","","","","","32","","","","","","","","","",""
"html-keyboard-response","104","542642","0.0-5.0-3.0-1.0","","null"," ","","","","","null","","","","","","","","","",""
"vsl-grid-scene-snap","105","544648","0.0-5.0-4.0-0.0","","","[[""img/obj5.png"",""img/obj8.png"",0],[""img/obj12.png"",0,""img/obj3.png""],[""img/obj6.png"",""img/obj7.png"",0]]","","","1,2,2,1,1,4,3,2,5","63","","","","","","","","","","",""
"vsl-grid-scene-snap","106","547658","0.0-5.0-4.0-1.0","","","[[""img/obj9.png"",0,0],[0,""img/obj11.png"",""img/obj1.png""],[""img/obj5.png"",""img/obj8.png"",""img/obj4.png""]]","","","3,2,1,1,3,4,1,1,6","138","","","","","","","","","","",""
"vsl-grid-scene-snap","107","550667","0.0-5.0-4.0-2.0","","","[[""img/obj5.png"",""img/obj8.png"",0],[""img/obj1.png"",0,""img/obj3.png""],[""img/obj4.png"",""img/obj7.png"",0]]","","","1,2,1,1,1,4,3,2,5","62","","","","","","","","","","",""
"vsl-grid-scene-snap","108","553676","0.0-5.0-4.0-3.0","","","[[""img/obj5.png"",""img/obj8.png"",""img/obj12.png""],[0,""img/obj9.png"",""img/obj6.png""],[0,0,""img/obj11.png""]]","","","3,1,2,1,1,4,2,2,6","83","","","","","","","","","","",""
"vsl-grid-scene-snap","109","556685","0.0-5.0-4.0-4.0","","","[[""img/obj10.png"",""img/obj2.png"",""img/obj12.png""],[0,""img/obj3.png"",""img/obj6.png""],[""img/obj7.png"",0,0]]","","","3,1,2,1,1,3,2,2,5","73","","","","","","","","","","",""
"vsl-grid-scene-snap","110","559696","0.0-5.0-4.0-5.0","","","[[0,""img/obj3.png"",0],[""img/obj7.png"",0,""img/obj12.png""],[""img/obj10.png"",""img/obj2.png"",""img/obj6.png""]]","","","3,2,2,1,3,3,2,1,5","133","","","","","","","","","","",""
"vsl-grid-scene-snap","111","562704","0.0-5.0-4.0-6.0","","","[[""img/obj9.png"",0,0],[""img/obj12.png"",""img/obj11.png"",0],[""img/obj6.png"",""img/obj5.png"",""img/obj8.png""]]","","","1,2,2,2,3,4,1,1,6","59","","","","","","","","","","",""
"vsl-grid-scene-snap","112","565714","0.0-5.0-4.0-7.0","","","[[0,""img/obj5.png"",""img/obj8.png""],[0,""img/obj3.png"",""img/obj1.png""],[""img/obj7.png"",0,""img/obj4.png""]]","","","3,2,1,2,1,4,2,2,5","122","","","","","","","","","","",""
"vsl-grid-scene-snap","113","568724","0.0-5.0-4.0-8.0","","","[[""img/obj9.png"",0,0],[0,""img/obj11.png"",""img/obj12.png""],[""img/obj5.png"",""img/obj8.png"",""img/obj6.png""]]","","","3,2,2,1,3,4,1,1,6","139","","","","","","","","","","",""
"vsl-grid-scene-snap","114","571732","0.0-5.0-4.0-9.0","","","[[""img/obj1.png"",""img/obj5.png"",""img/obj8.png""],[""img/obj4.png"",""img/obj9.png"",0],[0,0,""img/obj11.png""]]","","","1,1,1,2,1,4,2,2,6","10","","","","","","","","","","",""
"vsl-grid-scene-snap","115","574742","0.0-5.0-4.0-10.0","","","[[""img/obj5.png"",""img/obj8.png"",0],[0,""img/obj3.png"",""img/obj12.png""],[""img/obj7.png"",0,""img/obj6.png""]]","","","3,2,2,1,1,4,2,2,5","111","","","","","","","","","","",""
"vsl-grid-scene-snap","116","577752","0.0-5.0-4.0-11.0","","","[[""img/obj12.png"",0,0],[""img/obj6.png"",""img/obj9.png"",0],[""img/obj5.png"",""img/obj8.png"",""img/obj11.png""]]","","","1,1,2,1,3,4,2,2,6","35","","","","","","","","","","",""
"vsl-grid-scene-snap","117","580761","0.0-5.0-4.0-12.0","","","[[""img/obj5.png"",""img/obj8.png"",""img/obj12.png""],[""img/obj9.png"",0,""img/obj6.png""],[0,""img/obj11.png"",0]]","","","3,1,2,1,1,4,1,2,6","79","","","","","","","","","","",""
"vsl-grid-scene-snap","118","583771","0.0-5.0-4.0-13.0","","","[[""img/obj5.png"",""img/obj8.png"",""img/obj1.png""],[0,""img/obj9.png"",""img/obj4.png""],[0,0,""img/obj11.png""]]","","","3,1,1,1,1,4,2,2,6","82","","","","","","","","","","",""
"vsl-grid-scene-snap","119","586779","0.0-5.0-4.0-14.0","","","[[""img/obj5.png"",""img/obj8.png"",""img/obj3.png""],[""img/obj1.png"",""img/obj7.png"",0],[""img/obj4.png"",0,0]]","","","1,2,1,1,1,4,3,1,5","66","","","","","","","","","","",""
"vsl-grid-scene-snap","120","589788","0.0-5.0-4.0-15.0","","","[[0,""img/obj9.png"",0],[""img/obj1.png"",0,""img/obj11.png""],[""img/obj4.png"",""img/obj5.png"",""img/obj8.png""]]","","","1,2,1,2,3,4,2,1,6","54","","","","","","","","","","",""
"vsl-grid-scene-snap","121","592798","0.0-5.0-4.0-16.0","","","[[""img/obj9.png"",0,""img/obj12.png""],[0,""img/obj11.png"",""img/obj6.png""],[0,""img/obj10.png"",""img/obj2.png""]]","","","3,1,2,2,3,3,1,1,6","93","","","","","","","","","","",""
"vsl-grid-scene-snap","122","595807","0.0-5.0-4.0-17.0","","","[[""img/obj5.png"",""img/obj8.png"",""img/obj3.png""],[0,""img/obj7.png"",""img/obj12.png""],[0,0,""img/obj6.png""]]","","","3,2,2,1,1,4,3,1,5","119","","","","","","","","","","",""
"vsl-grid-scene-snap","123","598816","0.0-5.0-4.0-18.0","","","[[0,""img/obj9.png"",0],[""img/obj12.png"",0,""img/obj11.png""],[""img/obj6.png"",""img/obj5.png"",""img/obj8.png""]]","","","1,2,2,2,3,4,2,1,6","55","","","","","","","","","","",""
"vsl-grid-scene-snap","124","601825","0.0-5.0-4.0-19.0","","","[[""img/obj1.png"",""img/obj9.png"",0],[""img/obj4.png"",0,""img/obj11.png""],[""img/obj5.png"",""img/obj8.png"",0]]","","","1,1,1,1,3,4,2,1,6","30","","","","","","","","","","",""
"vsl-grid-scene-snap","125","604834","0.0-5.0-4.0-20.0","","","[[""img/obj1.png"",""img/obj5.png"",""img/obj8.png""],[""img/obj4.png"",""img/obj3.png"",0],[""img/obj7.png"",0,0]]","","","1,1,1,2,1,4,2,2,5","6","","","","","","","","","","",""
"vsl-grid-scene-snap","126","607844","0.0-5.0-4.0-21.0","","","[[0,""img/obj5.png"",""img/obj8.png""],[""img/obj9.png"",0,""img/obj12.png""],[0,""img/obj11.png"",""img/obj6.png""]]","","","3,2,2,2,1,4,1,2,6","127","","","","","","","","","","",""
"vsl-grid-scene-snap","127","610853","0.0-5.0-4.0-22.0","","","[[""img/obj12.png"",0,""img/obj3.png""],[""img/obj6.png"",""img/obj7.png"",0],[0,""img/obj10.png"",""img/obj2.png""]]","","","1,1,2,2,3,3,3,1,5","13","","","","","","","","","","",""
"vsl-grid-scene-snap","128","613863","0.0-5.0-4.0-23.0","","","[[""img/obj1.png"",0,""img/obj3.png""],[""img/obj4.png"",""img/obj7.png"",0],[""img/obj5.png"",""img/obj8.png"",0]]","","","1,1,1,1,3,4,3,1,5","26","","","","","","","","","","",""
"vsl-grid-scene-snap","129","616872","0.0-5.0-4.0-24.0","","","[[""img/obj5.png"",""img/obj8.png"",""img/obj3.png""],[""img/obj12.png"",""img/obj7.png"",0],[""img/obj6.png"",0,0]]","","","1,2,2,1,1,4,3,1,5","67","","","","","","","","","","",""
"vsl-grid-scene-snap","130","619881","0.0-5.0-4.0-25.0","","","[[""img/obj5.png"",""img/obj8.png"",""img/obj1.png""],[""img/obj9.png"",0,""img/obj4.png""],[0,""img/obj11.png"",0]]","","","3,1,1,1,1,4,1,2,6","78","","","","","","","","","","",""
"vsl-grid-scene-snap","131","622890","0.0-5.0-4.0-26.0","","","[[0,""img/obj10.png"",""img/obj2.png""],[""img/obj9.png"",0,""img/obj1.png""],[0,""img/obj11.png"",""img/obj4.png""]]","","","3,2,1,2,1,3,1,2,6","124","","","","","","","","","","",""
"vsl-grid-scene-snap","132","625921","0.0-5.0-4.0-27.0","","","[[""img/obj5.png"",""img/obj8.png"",""img/obj1.png""],[0,""img/obj3.png"",""img/obj4.png""],[""img/obj7.png"",0,0]]","","","3,1,1,1,1,4,2,2,5","74","","","","","","","","","","",""
"vsl-grid-scene-snap","133","628930","0.0-5.0-4.0-28.0","","","[[""img/obj9.png"",0,0],[""img/obj1.png"",""img/obj11.png"",0],[""img/obj4.png"",""img/obj10.png"",""img/obj2.png""]]","","","1,2,1,2,3,3,1,1,6","56","","","","","","","","","","",""
"vsl-grid-scene-snap","134","631939","0.0-5.0-4.0-29.0","","","[[0,""img/obj3.png"",""img/obj12.png""],[""img/obj7.png"",0,""img/obj6.png""],[""img/obj5.png"",""img/obj8.png"",0]]","","","3,1,2,1,3,4,2,1,5","99","","","","","","","","","","",""
"vsl-grid-scene-snap","135","634948","0.0-5.0-4.0-30.0","","","[[0,0,""img/obj1.png""],[0,""img/obj3.png"",""img/obj4.png""],[""img/obj7.png"",""img/obj5.png"",""img/obj8.png""]]","","","3,1,1,2,3,4,2,2,5","86","","","","","","","","","","",""
"vsl-grid-scene-snap","136","637957","0.0-5.0-4.0-31.0","","","[[""img/obj9.png"",""img/obj5.png"",""img/obj8.png""],[0,""img/obj11.png"",""img/obj12.png""],[0,0,""img/obj6.png""]]","","","3,2,2,2,1,4,1,1,6","131","","","","","","","","","","",""
"vsl-grid-scene-snap","137","640965","0.0-5.0-4.0-32.0","","","[[""img/obj10.png"",""img/obj2.png"",""img/obj1.png""],[""img/obj9.png"",0,""img/obj4.png""],[0,""img/obj11.png"",0]]","","","3,1,1,1,1,3,1,2,6","76","","","","","","","","","","",""
"vsl-grid-scene-snap","138","643974","0.0-5.0-4.0-33.0","","","[[""img/obj1.png"",0,0],[""img/obj4.png"",""img/obj3.png"",0],[""img/obj7.png"",""img/obj10.png"",""img/obj2.png""]]","","","1,1,1,2,3,3,2,2,5","16","","","","","","","","","","",""
"vsl-grid-scene-snap","139","646983","0.0-5.0-4.0-34.0","","","[[""img/obj9.png"",""img/obj10.png"",""img/obj2.png""],[0,""img/obj11.png"",""img/obj12.png""],[0,0,""img/obj6.png""]]","","","3,2,2,2,1,3,1,1,6","129","","","","","","","","","","",""
"vsl-grid-scene-snap","140","649992","0.0-5.0-4.0-35.0","","","[[""img/obj5.png"",""img/obj8.png"",0],[""img/obj1.png"",""img/obj9.png"",0],[""img/obj4.png"",0,""img/obj11.png""]]","","","1,2,1,1,1,4,2,2,6","70","","","","","","","","","","",""
"vsl-grid-scene-snap","141","653002","0.0-5.0-4.0-36.0","","","[[""img/obj1.png"",""img/obj5.png"",""img/obj8.png""],[""img/obj4.png"",0,""img/obj3.png""],[0,""img/obj7.png"",0]]","","","1,1,1,2,1,4,3,2,5","2","","","","","","","","","","",""
"vsl-grid-scene-snap","142","656011","0.0-5.0-4.0-37.0","","","[[""img/obj5.png"",""img/obj8.png"",0],[""img/obj12.png"",""img/obj9.png"",0],[""img/obj6.png"",0,""img/obj11.png""]]","","","1,2,2,1,1,4,2,2,6","71","","","","","","","","","","",""
"vsl-grid-scene-snap","143","659020","0.0-5.0-4.0-38.0","","","[[""img/obj10.png"",""img/obj2.png"",""img/obj3.png""],[0,""img/obj7.png"",""img/obj12.png""],[0,0,""img/obj6.png""]]","","","3,2,2,1,1,3,3,1,5","117","","","","","","","","","","",""
"vsl-grid-scene-snap","144","662030","0.0-5.0-4.0-39.0","","","[[0,""img/obj3.png"",0],[""img/obj7.png"",0,""img/obj12.png""],[""img/obj5.png"",""img/obj8.png"",""img/obj6.png""]]","","","3,2,2,1,3,4,2,1,5","135","","","","","","","","","","",""
"vsl-grid-scene-snap","145","665039","0.0-5.0-4.0-40.0","","","[[""img/obj10.png"",""img/obj2.png"",""img/obj3.png""],[""img/obj1.png"",""img/obj7.png"",0],[""img/obj4.png"",0,0]]","","","1,2,1,1,1,3,3,1,5","64","","","","","","","","","","",""
"vsl-grid-scene-snap","146","668048","0.0-5.0-4.0-41.0","","","[[0,""img/obj3.png"",""img/obj1.png""],[""img/obj7.png"",0,""img/obj4.png""],[0,""img/obj5.png"",""img/obj8.png""]]","","","3,1,1,2,3,4,2,1,5","90","","","","","","","","","","",""
"vsl-grid-scene-snap","147","671056","0.0-5.0-4.0-42.0","","","[[""img/obj10.png"",""img/obj2.png"",0],[""img/obj12.png"",0,""img/obj3.png""],[""img/obj6.png"",""img/obj7.png"",0]]","","","1,2,2,1,1,3,3,2,5","61","","","","","","","","","","",""
"vsl-grid-scene-snap","148","674065","0.0-5.0-4.0-43.0","","","[[""img/obj10.png"",""img/obj2.png"",0],[""img/obj12.png"",""img/obj9.png"",0],[""img/obj6.png"",0,""img/obj11.png""]]","","","1,2,2,1,1,3,2,2,6","69","","","","","","","","","","",""
"vsl-grid-scene-snap","149","677073","0.0-5.0-4.0-44.0","","","[[""img/obj5.png"",""img/obj8.png"",""img/obj3.png""],[0,""img/obj7.png"",""img/obj1.png""],[0,0,""img/obj4.png""]]","","","3,2,1,1,1,4,3,1,5","118","","","","","","","","","","",""
"vsl-grid-scene-snap","150","680083","0.0-5.0-4.0-45.0","","","[[""img/obj9.png"",0,""img/obj12.png""],[0,""img/obj11.png"",""img/obj6.png""],[""img/obj5.png"",""img/obj8.png"",0]]","","","3,1,2,1,3,4,1,1,6","103","","","","","","","","","","",""
"vsl-grid-scene-snap","151","683091","0.0-5.0-4.0-46.0","","","[[""img/obj12.png"",""img/obj9.png"",0],[""img/obj6.png"",0,""img/obj11.png""],[""img/obj10.png"",""img/obj2.png"",0]]","","","1,1,2,1,3,3,2,1,6","29","","","","","","","","","","",""
"vsl-grid-scene-snap","152","686100","0.0-5.0-4.0-47.0","","","[[""img/obj12.png"",""img/obj5.png"",""img/obj8.png""],[""img/obj6.png"",""img/obj3.png"",0],[""img/obj7.png"",0,0]]","","","1,1,2,2,1,4,2,2,5","7","","","","","","","","","","",""
"vsl-grid-attention-check","153","687761","0.0-5.0-5.0-0.0-0.0","","655.5","[[""img/square.png"",0,""img/square.png""],[0,""img/attention.png"",""img/square.png""],[0,""img/square.png"",""img/square.png""]]","","","","","32","","","","","","","","","",""
"html-keyboard-response","154","688769","0.0-5.0-5.0-1.0","","null"," ","","","","","null","","","","","","","","","",""
"vsl-grid-scene-snap","155","690775","0.0-5.0-6.0-0.0","","","[[0,""img/obj5.png"",""img/obj8.png""],[0,""img/obj3.png"",""img/obj12.png""],[""img/obj7.png"",0,""img/obj6.png""]]","","","3,2,2,2,1,4,2,2,5","123","","","","","","","","","","",""
"vsl-grid-scene-snap","156","693783","0.0-5.0-6.0-1.0","","","[[""img/obj9.png"",""img/obj5.png"",""img/obj8.png""],[""img/obj1.png"",""img/obj11.png"",0],[""img/obj4.png"",0,0]]","","","1,2,1,2,1,4,1,1,6","42","","","","","","","","","","",""
"vsl-grid-scene-snap","157","696800","0.0-5.0-6.0-2.0","","","[[0,0,""img/obj3.png""],[""img/obj1.png"",""img/obj7.png"",0],[""img/obj4.png"",""img/obj10.png"",""img/obj2.png""]]","","","1,2,1,2,3,3,3,1,5","48","","","","","","","","","","",""
"vsl-grid-scene-snap","158","699816","0.0-5.0-6.0-3.0","","","[[""img/obj12.png"",0,""img/obj3.png""],[""img/obj6.png"",""img/obj7.png"",0],[""img/obj10.png"",""img/obj2.png"",0]]","","","1,1,2,1,3,3,3,1,5","25","","","","","","","","","","",""
"vsl-grid-scene-snap","159","702825","0.0-5.0-6.0-4.0","","","[[0,0,""img/obj3.png""],[0,""img/obj7.png"",""img/obj1.png""],[""img/obj10.png"",""img/obj2.png"",""img/obj4.png""]]","","","3,2,1,1,3,3,3,1,5","140","","","","","","","","","","",""
"vsl-grid-scene-snap","160","705835","0.0-5.0-6.0-5.0","","","[[""img/obj10.png"",""img/obj2.png"",0],[0,""img/obj3.png"",""img/obj1.png""],[""img/obj7.png"",0,""img/obj4.png""]]","","","3,2,1,1,1,3,2,2,5","108","","","","","","","","","","",""
"vsl-grid-scene-snap","161","708845","0.0-5.0-6.0-6.0","","","[[0,""img/obj3.png"",""img/obj12.png""],[""img/obj7.png"",0,""img/obj6.png""],[0,""img/obj10.png"",""img/obj2.png""]]","","","3,1,2,2,3,3,2,1,5","89","","","","","","","","","","",""
"vsl-grid-scene-snap","162","711854","0.0-5.0-6.0-7.0","","","[[""img/obj9.png"",""img/obj10.png"",""img/obj2.png""],[""img/obj1.png"",""img/obj11.png"",0],[""img/obj4.png"",0,0]]","","","1,2,1,2,1,3,1,1,6","40","","","","","","","","","","",""
"vsl-grid-scene-snap","163","714864","0.0-5.0-6.0-8.0","","","[[""img/obj10.png"",""img/obj2.png"",0],[""img/obj1.png"",""img/obj9.png"",0],[""img/obj4.png"",0,""img/obj11.png""]]","","","1,2,1,1,1,3,2,2,6","68","","","","","","","","","","",""
"vsl-grid-scene-snap","164","717873","0.0-5.0-6.0-9.0","","","[[""img/obj12.png"",""img/obj10.png"",""img/obj2.png""],[""img/obj6.png"",""img/obj9.png"",0],[0,0,""img/obj11.png""]]","","","1,1,2,2,1,3,2,2,6","9","","","","","","","","","","",""
"vsl-grid-scene-snap","165","720882","0.0-5.0-6.0-10.0","","","[[""img/obj12.png"",""img/obj5.png"",""img/obj8.png""],[""img/obj6.png"",0,""img/obj3.png""],[0,""img/obj7.png"",0]]","","","1,1,2,2,1,4,3,2,5","3","","","","","","","","","","",""
"vsl-grid-scene-snap","166","723890","0.0-5.0-6.0-11.0","","","[[0,0,""img/obj3.png""],[""img/obj12.png"",""img/obj7.png"",0],[""img/obj6.png"",""img/obj5.png"",""img/obj8.png""]]","","","1,2,2,2,3,4,3,1,5","51","","","","","","","","","","",""
"vsl-grid-scene-snap","167","726897","0.0-5.0-6.0-12.0","","","[[""img/obj5.png"",""img/obj8.png"",""img/obj12.png""],[0,""img/obj3.png"",""img/obj6.png""],[""img/obj7.png"",0,0]]","","","3,1,2,1,1,4,2,2,5","75","","","","","","","","","","",""
"vsl-grid-scene-snap","168","729906","0.0-5.0-6.0-13.0","","","[[0,""img/obj10.png"",""img/obj2.png""],[""img/obj12.png"",0,""img/obj3.png""],[""img/obj6.png"",""img/obj7.png"",0]]","","","1,2,2,2,1,3,3,2,5","37","","","","","","","","","","",""
"vsl-grid-scene-snap","169","732915","0.0-5.0-6.0-14.0","","","[[0,""img/obj5.png"",""img/obj8.png""],[""img/obj12.png"",0,""img/obj3.png""],[""img/obj6.png"",""img/obj7.png"",0]]","","","1,2,2,2,1,4,3,2,5","39","","","","","","","","","","",""
"vsl-grid-scene-snap","170","735924","0.0-5.0-6.0-15.0","","","[[0,""img/obj5.png"",""img/obj8.png""],[""img/obj1.png"",0,""img/obj3.png""],[""img/obj4.png"",""img/obj7.png"",0]]","","","1,2,1,2,1,4,3,2,5","38","","","","","","","","","","",""
"vsl-grid-scene-snap","171","738932","0.0-5.0-6.0-16.0","","","[[0,0,""img/obj12.png""],[0,""img/obj3.png"",""img/obj6.png""],[""img/obj7.png"",""img/obj10.png"",""img/obj2.png""]]","","","3,1,2,2,3,3,2,2,5","85","","","","","","","","","","",""
"vsl-grid-scene-snap","172","741941","0.0-5.0-6.0-17.0","","","[[0,0,""img/obj3.png""],[0,""img/obj7.png"",""img/obj12.png""],[""img/obj5.png"",""img/obj8.png"",""img/obj6.png""]]","","","3,2,2,1,3,4,3,1,5","143","","","","","","","","","","",""
"vsl-grid-scene-snap","173","744950","0.0-5.0-6.0-18.0","","","[[""img/obj12.png"",""img/obj9.png"",0],[""img/obj6.png"",0,""img/obj11.png""],[""img/obj5.png"",""img/obj8.png"",0]]","","","1,1,2,1,3,4,2,1,6","31","","","","","","","","","","",""
"vsl-grid-scene-snap","174","747959","0.0-5.0-6.0-19.0","","","[[""img/obj1.png"",""img/obj10.png"",""img/obj2.png""],[""img/obj4.png"",""img/obj3.png"",0],[""img/obj7.png"",0,0]]","","","1,1,1,2,1,3,2,2,5","4","","","","","","","","","","",""
"vsl-grid-scene-snap","175","750968","0.0-5.0-6.0-20.0","","","[[0,""img/obj10.png"",""img/obj2.png""],[0,""img/obj3.png"",""img/obj1.png""],[""img/obj7.png"",0,""img/obj4.png""]]","","","3,2,1,2,1,3,2,2,5","120","","","","","","","","","","",""
"vsl-grid-scene-snap","176","753977","0.0-5.0-6.0-21.0","","","[[0,""img/obj3.png"",""img/obj1.png""],[""img/obj7.png"",0,""img/obj4.png""],[0,""img/obj10.png"",""img/obj2.png""]]","","","3,1,1,2,3,3,2,1,5","88","","","","","","","","","","",""
"vsl-grid-scene-snap","177","756986","0.0-5.0-6.0-22.0","","","[[""img/obj12.png"",""img/obj9.png"",0],[""img/obj6.png"",0,""img/obj11.png""],[0,""img/obj5.png"",""img/obj8.png""]]","","","1,1,2,2,3,4,2,1,6","23","","","","","","","","","","",""
"vsl-grid-scene-snap","178","759994","0.0-5.0-6.0-23.0","","","[[""img/obj9.png"",0,""img/obj1.png""],[0,""img/obj11.png"",""img/obj4.png""],[""img/obj10.png"",""img/obj2.png"",0]]","","","3,1,1,1,3,3,1,1,6","100","","","","","","","","","","",""
"vsl-grid-scene-snap","179","763002","0.0-5.0-6.0-24.0","","","[[""img/obj5.png"",""img/obj8.png"",0],[""img/obj9.png"",0,""img/obj1.png""],[0,""img/obj11.png"",""img/obj4.png""]]","","","3,2,1,1,1,4,1,2,6","114","","","","","","","","","","",""
"vsl-grid-scene-snap","180","766011","0.0-5.0-6.0-25.0","","","[[""img/obj10.png"",""img/obj2.png"",""img/obj1.png""],[0,""img/obj9.png"",""img/obj4.png""],[0,0,""img/obj11.png""]]","","","3,1,1,1,1,3,2,2,6","80","","","","","","","","","","",""
"vsl-grid-scene-snap","181","769019","0.0-5.0-6.0-26.0","","","[[""img/obj1.png"",0,""img/obj3.png""],[""img/obj4.png"",""img/obj7.png"",0],[""img/obj10.png"",""img/obj2.png"",0]]","","","1,1,1,1,3,3,3,1,5","24","","","","","","","","","","",""
"vsl-grid-scene-snap","182","772028","0.0-5.0-6.0-27.0","","","[[0,""img/obj3.png"",""img/obj1.png""],[""img/obj7.png"",0,""img/obj4.png""],[""img/obj5.png"",""img/obj8.png"",0]]","","","3,1,1,1,3,4,2,1,5","98","","","","","","","","","","",""
"vsl-grid-scene-snap","183","775036","0.0-5.0-6.0-28.0","","","[[""img/obj1.png"",""img/obj9.png"",0],[""img/obj4.png"",0,""img/obj11.png""],[""img/obj10.png"",""img/obj2.png"",0]]","","","1,1,1,1,3,3,2,1,6","28","","","","","","","","","","",""
"vsl-grid-scene-snap","184","778045","0.0-5.0-6.0-29.0","","","[[""img/obj1.png"",0,""img/obj3.png""],[""img/obj4.png"",""img/obj7.png"",0],[0,""img/obj10.png"",""img/obj2.png""]]","","","1,1,1,2,3,3,3,1,5","12","","","","","","","","","","",""
"vsl-grid-scene-snap","185","781054","0.0-5.0-6.0-30.0","","","[[""img/obj10.png"",""img/obj2.png"",""img/obj3.png""],[""img/obj12.png"",""img/obj7.png"",0],[""img/obj6.png"",0,0]]","","","1,2,2,1,1,3,3,1,5","65","","","","","","","","","","",""
"vsl-grid-scene-snap","186","784062","0.0-5.0-6.0-31.0","","","[[0,""img/obj10.png"",""img/obj2.png""],[""img/obj1.png"",0,""img/obj3.png""],[""img/obj4.png"",""img/obj7.png"",0]]","","","1,2,1,2,1,3,3,2,5","36","","","","","","","","","","",""
"vsl-grid-scene-snap","187","787071","0.0-5.0-6.0-32.0","","","[[0,0,""img/obj1.png""],[0,""img/obj9.png"",""img/obj4.png""],[""img/obj10.png"",""img/obj2.png"",""img/obj11.png""]]","","","3,1,1,1,3,3,2,2,6","104","","","","","","","","","","",""
"vsl-grid-scene-snap","188","790080","0.0-5.0-6.0-33.0","","","[[""img/obj1.png"",""img/obj9.png"",0],[""img/obj4.png"",0,""img/obj11.png""],[0,""img/obj5.png"",""img/obj8.png""]]","","","1,1,1,2,3,4,2,1,6","22","","","","","","","","","","",""
"vsl-grid-scene-snap","189","793090","0.0-5.0-6.0-34.0","","","[[0,""img/obj5.png"",""img/obj8.png""],[""img/obj1.png"",""img/obj9.png"",0],[""img/obj4.png"",0,""img/obj11.png""]]","","","1,2,1,2,1,4,2,2,6","46","","","","","","","","","","",""
"vsl-grid-scene-snap","190","796098","0.0-5.0-6.0-35.0","","","[[""img/obj1.png"",""img/obj10.png"",""img/obj2.png""],[""img/obj4.png"",0,""img/obj3.png""],[0,""img/obj7.png"",0]]","","","1,1,1,2,1,3,3,2,5","0","","","","","","","","","","",""
"vsl-grid-scene-snap","191","799106","0.0-5.0-6.0-36.0","","","[[0,0,""img/obj1.png""],[0,""img/obj9.png"",""img/obj4.png""],[""img/obj5.png"",""img/obj8.png"",""img/obj11.png""]]","","","3,1,1,1,3,4,2,2,6","106","","","","","","","","","","",""
"vsl-grid-scene-snap","192","802115","0.0-5.0-6.0-37.0","","","[[""img/obj5.png"",""img/obj8.png"",0],[0,""img/obj3.png"",""img/obj1.png""],[""img/obj7.png"",0,""img/obj4.png""]]","","","3,2,1,1,1,4,2,2,5","110","","","","","","","","","","",""
"vsl-grid-scene-snap","193","805124","0.0-5.0-6.0-38.0","","","[[""img/obj9.png"",""img/obj5.png"",""img/obj8.png""],[""img/obj12.png"",""img/obj11.png"",0],[""img/obj6.png"",0,0]]","","","1,2,2,2,1,4,1,1,6","43","","","","","","","","","","",""
"vsl-grid-scene-snap","194","808132","0.0-5.0-6.0-39.0","","","[[0,""img/obj10.png"",""img/obj2.png""],[0,""img/obj3.png"",""img/obj12.png""],[""img/obj7.png"",0,""img/obj6.png""]]","","","3,2,2,2,1,3,2,2,5","121","","","","","","","","","","",""
"vsl-grid-scene-snap","195","811141","0.0-5.0-6.0-40.0","","","[[""img/obj9.png"",0,0],[""img/obj12.png"",""img/obj11.png"",0],[""img/obj6.png"",""img/obj10.png"",""img/obj2.png""]]","","","1,2,2,2,3,3,1,1,6","57","","","","","","","","","","",""
"vsl-grid-scene-snap","196","814149","0.0-5.0-6.0-41.0","","","[[0,""img/obj9.png"",0],[""img/obj1.png"",0,""img/obj11.png""],[""img/obj4.png"",""img/obj10.png"",""img/obj2.png""]]","","","1,2,1,2,3,3,2,1,6","52","","","","","","","","","","",""
"vsl-grid-scene-snap","197","817158","0.0-5.0-6.0-42.0","","","[[""img/obj9.png"",0,""img/obj1.png""],[0,""img/obj11.png"",""img/obj4.png""],[0,""img/obj10.png"",""img/obj2.png""]]","","","3,1,1,2,3,3,1,1,6","92","","","","","","","","","","",""
"vsl-grid-scene-snap","198","820166","0.0-5.0-6.0-43.0","","","[[""img/obj1.png"",0,""img/obj3.png""],[""img/obj4.png"",""img/obj7.png"",0],[0,""img/obj5.png"",""img/obj8.png""]]","","","1,1,1,2,3,4,3,1,5","14","","","","","","","","","","",""
"vsl-grid-scene-snap","199","823175","0.0-5.0-6.0-44.0","","","[[0,0,""img/obj12.png""],[0,""img/obj3.png"",""img/obj6.png""],[""img/obj7.png"",""img/obj5.png"",""img/obj8.png""]]","","","3,1,2,2,3,4,2,2,5","87","","","","","","","","","","",""
"vsl-grid-scene-snap","200","826183","0.0-5.0-6.0-45.0","","","[[0,0,""img/obj3.png""],[""img/obj12.png"",""img/obj7.png"",0],[""img/obj6.png"",""img/obj10.png"",""img/obj2.png""]]","","","1,2,2,2,3,3,3,1,5","49","","","","","","","","","","",""
"vsl-grid-scene-snap","201","829192","0.0-5.0-6.0-46.0","","","[[""img/obj9.png"",0,0],[0,""img/obj11.png"",""img/obj12.png""],[""img/obj10.png"",""img/obj2.png"",""img/obj6.png""]]","","","3,2,2,1,3,3,1,1,6","137","","","","","","","","","","",""
"vsl-grid-scene-snap","202","832201","0.0-5.0-6.0-47.0","","","[[""img/obj12.png"",0,0],[""img/obj6.png"",""img/obj9.png"",0],[""img/obj10.png"",""img/obj2.png"",""img/obj11.png""]]","","","1,1,2,1,3,3,2,2,6","33","","","","","","","","","","",""
"vsl-grid-attention-check","203","833719","0.0-5.0-7.0-0.0-0.0","","513.1000000238419","[[""img/square.png"",0,0],[""img/square.png"",""img/attention.png"",""img/square.png""],[""img/square.png"",0,""img/square.png""]]","","","","","32","","","","","","","","","",""
"html-keyboard-response","204","834723","0.0-5.0-7.0-1.0","","null"," ","","","","","null","","","","","","","","","",""
"vsl-grid-scene-snap","205","836729","0.0-5.0-8.0-0.0","","","[[""img/obj1.png"",""img/obj9.png"",0],[""img/obj4.png"",0,""img/obj11.png""],[0,""img/obj10.png"",""img/obj2.png""]]","","","1,1,1,2,3,3,2,1,6","20","","","","","","","","","","",""
"vsl-grid-scene-snap","206","839737","0.0-5.0-8.0-1.0","","","[[""img/obj12.png"",0,0],[""img/obj6.png"",""img/obj3.png"",0],[""img/obj7.png"",""img/obj10.png"",""img/obj2.png""]]","","","1,1,2,2,3,3,2,2,5","17","","","","","","","","","","",""
"vsl-grid-scene-snap","207","842745","0.0-5.0-8.0-2.0","","","[[0,""img/obj3.png"",""img/obj12.png""],[""img/obj7.png"",0,""img/obj6.png""],[""img/obj10.png"",""img/obj2.png"",0]]","","","3,1,2,1,3,3,2,1,5","97","","","","","","","","","","",""
"vsl-grid-scene-snap","208","845754","0.0-5.0-8.0-3.0","","","[[""img/obj12.png"",""img/obj10.png"",""img/obj2.png""],[""img/obj6.png"",""img/obj3.png"",0],[""img/obj7.png"",0,0]]","","","1,1,2,2,1,3,2,2,5","5","","","","","","","","","","",""
"vsl-grid-scene-snap","209","848762","0.0-5.0-8.0-4.0","","","[[""img/obj9.png"",0,""img/obj12.png""],[0,""img/obj11.png"",""img/obj6.png""],[""img/obj10.png"",""img/obj2.png"",0]]","","","3,1,2,1,3,3,1,1,6","101","","","","","","","","","","",""
"vsl-grid-scene-snap","210","851769","0.0-5.0-8.0-5.0","","","[[0,""img/obj10.png"",""img/obj2.png""],[""img/obj1.png"",""img/obj9.png"",0],[""img/obj4.png"",0,""img/obj11.png""]]","","","1,2,1,2,1,3,2,2,6","44","","","","","","","","","","",""
"vsl-grid-scene-snap","211","854777","0.0-5.0-8.0-6.0","","","[[0,""img/obj3.png"",0],[""img/obj7.png"",0,""img/obj1.png""],[""img/obj10.png"",""img/obj2.png"",""img/obj4.png""]]","","","3,2,1,1,3,3,2,1,5","132","","","","","","","","","","",""
"vsl-grid-scene-snap","212","857785","0.0-5.0-8.0-7.0","","","[[""img/obj12.png"",0,0],[""img/obj6.png"",""img/obj3.png"",0],[""img/obj7.png"",""img/obj5.png"",""img/obj8.png""]]","","","1,1,2,2,3,4,2,2,5","19","","","","","","","","","","",""
"vsl-grid-scene-snap","213","860794","0.0-5.0-8.0-8.0","","","[[""img/obj12.png"",0,""img/obj3.png""],[""img/obj6.png"",""img/obj7.png"",0],[""img/obj5.png"",""img/obj8.png"",0]]","","","1,1,2,1,3,4,3,1,5","27","","","","","","","","","","",""
"vsl-grid-scene-snap","214","863802","0.0-5.0-8.0-9.0","","","[[0,""img/obj3.png"",""img/obj12.png""],[""img/obj7.png"",0,""img/obj6.png""],[0,""img/obj5.png"",""img/obj8.png""]]","","","3,1,2,2,3,4,2,1,5","91","","","","","","","","","","",""
"vsl-grid-scene-snap","215","866810","0.0-5.0-8.0-10.0","","","[[""img/obj12.png"",""img/obj10.png"",""img/obj2.png""],[""img/obj6.png"",0,""img/obj3.png""],[0,""img/obj7.png"",0]]","","","1,1,2,2,1,3,3,2,5","1","","","","","","","","","","",""
"vsl-grid-scene-snap","216","869819","0.0-5.0-8.0-11.0","","","[[0,""img/obj5.png"",""img/obj8.png""],[""img/obj9.png"",0,""img/obj1.png""],[0,""img/obj11.png"",""img/obj4.png""]]","","","3,2,1,2,1,4,1,2,6","126","","","","","","","","","","",""
"vsl-grid-scene-snap","217","872827","0.0-5.0-8.0-12.0","","","[[""img/obj10.png"",""img/obj2.png"",""img/obj1.png""],[0,""img/obj3.png"",""img/obj4.png""],[""img/obj7.png"",0,0]]","","","3,1,1,1,1,3,2,2,5","72","","","","","","","","","","",""
"vsl-grid-scene-snap","218","875835","0.0-5.0-8.0-13.0","","","[[""img/obj5.png"",""img/obj8.png"",0],[""img/obj9.png"",0,""img/obj12.png""],[0,""img/obj11.png"",""img/obj6.png""]]","","","3,2,2,1,1,4,1,2,6","115","","","","","","","","","","",""
"vsl-grid-scene-snap","219","878844","0.0-5.0-8.0-14.0","","","[[0,0,""img/obj3.png""],[0,""img/obj7.png"",""img/obj1.png""],[""img/obj5.png"",""img/obj8.png"",""img/obj4.png""]]","","","3,2,1,1,3,4,3,1,5","142","","","","","","","","","","",""
"vsl-grid-scene-snap","220","881852","0.0-5.0-8.0-15.0","","","[[""img/obj9.png"",0,""img/obj1.png""],[0,""img/obj11.png"",""img/obj4.png""],[""img/obj5.png"",""img/obj8.png"",0]]","","","3,1,1,1,3,4,1,1,6","102","","","","","","","","","","",""
"vsl-grid-scene-snap","221","884860","0.0-5.0-8.0-16.0","","","[[""img/obj1.png"",""img/obj10.png"",""img/obj2.png""],[""img/obj4.png"",""img/obj9.png"",0],[0,0,""img/obj11.png""]]","","","1,1,1,2,1,3,2,2,6","8","","","","","","","","","","",""
"vsl-grid-scene-snap","222","887868","0.0-5.0-8.0-17.0","","","[[""img/obj9.png"",""img/obj10.png"",""img/obj2.png""],[0,""img/obj11.png"",""img/obj1.png""],[0,0,""img/obj4.png""]]","","","3,2,1,2,1,3,1,1,6","128","","","","","","","","","","",""
"vsl-grid-scene-snap","223","890877","0.0-5.0-8.0-18.0","","","[[""img/obj1.png"",0,0],[""img/obj4.png"",""img/obj9.png"",0],[""img/obj5.png"",""img/obj8.png"",""img/obj11.png""]]","","","1,1,1,1,3,4,2,2,6","34","","","","","","","","","","",""
"vsl-grid-scene-snap","224","893885","0.0-5.0-8.0-19.0","","","[[""img/obj12.png"",0,""img/obj3.png""],[""img/obj6.png"",""img/obj7.png"",0],[0,""img/obj5.png"",""img/obj8.png""]]","","","1,1,2,2,3,4,3,1,5","15","","","","","","","","","","",""
"vsl-grid-scene-snap","225","896893","0.0-5.0-8.0-20.0","","","[[""img/obj9.png"",0,0],[""img/obj1.png"",""img/obj11.png"",0],[""img/obj4.png"",""img/obj5.png"",""img/obj8.png""]]","","","1,2,1,2,3,4,1,1,6","58","","","","","","","","","","",""
"vsl-grid-scene-snap","226","899902","0.0-5.0-8.0-21.0","","","[[""img/obj10.png"",""img/obj2.png"",0],[0,""img/obj3.png"",""img/obj12.png""],[""img/obj7.png"",0,""img/obj6.png""]]","","","3,2,2,1,1,3,2,2,5","109","","","","","","","","","","",""
"vsl-grid-scene-snap","227","902910","0.0-5.0-8.0-22.0","","","[[""img/obj10.png"",""img/obj2.png"",0],[""img/obj9.png"",0,""img/obj12.png""],[0,""img/obj11.png"",""img/obj6.png""]]","","","3,2,2,1,1,3,1,2,6","113","","","","","","","","","","",""
"vsl-grid-scene-snap","228","905919","0.0-5.0-8.0-23.0","","","[[0,0,""img/obj1.png""],[0,""img/obj3.png"",""img/obj4.png""],[""img/obj7.png"",""img/obj10.png"",""img/obj2.png""]]","","","3,1,1,2,3,3,2,2,5","84","","","","","","","","","","",""
"vsl-grid-scene-snap","229","908927","0.0-5.0-8.0-24.0","","","[[""img/obj10.png"",""img/obj2.png"",0],[""img/obj9.png"",0,""img/obj1.png""],[0,""img/obj11.png"",""img/obj4.png""]]","","","3,2,1,1,1,3,1,2,6","112","","","","","","","","","","",""
"vsl-grid-scene-snap","230","911935","0.0-5.0-8.0-25.0","","","[[""img/obj9.png"",""img/obj5.png"",""img/obj8.png""],[0,""img/obj11.png"",""img/obj1.png""],[0,0,""img/obj4.png""]]","","","3,2,1,2,1,4,1,1,6","130","","","","","","","","","","",""
"vsl-grid-scene-snap","231","914944","0.0-5.0-8.0-26.0","","","[[0,""img/obj5.png"",""img/obj8.png""],[""img/obj12.png"",""img/obj9.png"",0],[""img/obj6.png"",0,""img/obj11.png""]]","","","1,2,2,2,1,4,2,2,6","47","","","","","","","","","","",""
"vsl-grid-scene-snap","232","917952","0.0-5.0-8.0-27.0","","","[[0,""img/obj9.png"",0],[""img/obj12.png"",0,""img/obj11.png""],[""img/obj6.png"",""img/obj10.png"",""img/obj2.png""]]","","","1,2,2,2,3,3,2,1,6","53","","","","","","","","","","",""
"vsl-grid-scene-snap","233","920961","0.0-5.0-8.0-28.0","","","[[""img/obj9.png"",0,""img/obj12.png""],[0,""img/obj11.png"",""img/obj6.png""],[0,""img/obj5.png"",""img/obj8.png""]]","","","3,1,2,2,3,4,1,1,6","95","","","","","","","","","","",""
"vsl-grid-scene-snap","234","923969","0.0-5.0-8.0-29.0","","","[[0,""img/obj3.png"",0],[""img/obj7.png"",0,""img/obj1.png""],[""img/obj5.png"",""img/obj8.png"",""img/obj4.png""]]","","","3,2,1,1,3,4,2,1,5","134","","","","","","","","","","",""
"vsl-grid-scene-snap","235","926978","0.0-5.0-8.0-30.0","","","[[""img/obj10.png"",""img/obj2.png"",""img/obj12.png""],[""img/obj9.png"",0,""img/obj6.png""],[0,""img/obj11.png"",0]]","","","3,1,2,1,1,3,1,2,6","77","","","","","","","","","","",""
"vsl-grid-scene-snap","236","929987","0.0-5.0-8.0-31.0","","","[[""img/obj12.png"",""img/obj5.png"",""img/obj8.png""],[""img/obj6.png"",""img/obj9.png"",0],[0,0,""img/obj11.png""]]","","","1,1,2,2,1,4,2,2,6","11","","","","","","","","","","",""
"vsl-grid-scene-snap","237","932996","0.0-5.0-8.0-32.0","","","[[0,0,""img/obj3.png""],[""img/obj1.png"",""img/obj7.png"",0],[""img/obj4.png"",""img/obj5.png"",""img/obj8.png""]]","","","1,2,1,2,3,4,3,1,5","50","","","","","","","","","","",""
"vsl-grid-scene-snap","238","936004","0.0-5.0-8.0-33.0","","","[[""img/obj1.png"",0,0],[""img/obj4.png"",""img/obj3.png"",0],[""img/obj7.png"",""img/obj5.png"",""img/obj8.png""]]","","","1,1,1,2,3,4,2,2,5","18","","","","","","","","","","",""
"vsl-grid-scene-snap","239","939014","0.0-5.0-8.0-34.0","","","[[""img/obj10.png"",""img/obj2.png"",""img/obj12.png""],[0,""img/obj9.png"",""img/obj6.png""],[0,0,""img/obj11.png""]]","","","3,1,2,1,1,3,2,2,6","81","","","","","","","","","","",""
"vsl-grid-scene-snap","240","942021","0.0-5.0-8.0-35.0","","","[[0,0,""img/obj3.png""],[0,""img/obj7.png"",""img/obj12.png""],[""img/obj10.png"",""img/obj2.png"",""img/obj6.png""]]","","","3,2,2,1,3,3,3,1,5","141","","","","","","","","","","",""
"vsl-grid-scene-snap","241","945031","0.0-5.0-8.0-36.0","","","[[""img/obj9.png"",0,""img/obj1.png""],[0,""img/obj11.png"",""img/obj4.png""],[0,""img/obj5.png"",""img/obj8.png""]]","","","3,1,1,2,3,4,1,1,6","94","","","","","","","","","","",""
"vsl-grid-scene-snap","242","948039","0.0-5.0-8.0-37.0","","","[[""img/obj12.png"",""img/obj9.png"",0],[""img/obj6.png"",0,""img/obj11.png""],[0,""img/obj10.png"",""img/obj2.png""]]","","","1,1,2,2,3,3,2,1,6","21","","","","","","","","","","",""
"vsl-grid-scene-snap","243","951047","0.0-5.0-8.0-38.0","","","[[0,0,""img/obj12.png""],[0,""img/obj9.png"",""img/obj6.png""],[""img/obj5.png"",""img/obj8.png"",""img/obj11.png""]]","","","3,1,2,1,3,4,2,2,6","107","","","","","","","","","","",""
"vsl-grid-scene-snap","244","954055","0.0-5.0-8.0-39.0","","","[[""img/obj1.png"",0,0],[""img/obj4.png"",""img/obj9.png"",0],[""img/obj10.png"",""img/obj2.png"",""img/obj11.png""]]","","","1,1,1,1,3,3,2,2,6","32","","","","","","","","","","",""
"vsl-grid-scene-snap","245","957064","0.0-5.0-8.0-40.0","","","[[0,0,""img/obj12.png""],[0,""img/obj9.png"",""img/obj6.png""],[""img/obj10.png"",""img/obj2.png"",""img/obj11.png""]]","","","3,1,2,1,3,3,2,2,6","105","","","","","","","","","","",""
"vsl-grid-scene-snap","246","960073","0.0-5.0-8.0-41.0","","","[[""img/obj10.png"",""img/obj2.png"",0],[""img/obj1.png"",0,""img/obj3.png""],[""img/obj4.png"",""img/obj7.png"",0]]","","","1,2,1,1,1,3,3,2,5","60","","","","","","","","","","",""
"vsl-grid-scene-snap","247","963081","0.0-5.0-8.0-42.0","","","[[""img/obj9.png"",0,0],[0,""img/obj11.png"",""img/obj1.png""],[""img/obj10.png"",""img/obj2.png"",""img/obj4.png""]]","","","3,2,1,1,3,3,1,1,6","136","","","","","","","","","","",""
"vsl-grid-scene-snap","248","966089","0.0-5.0-8.0-43.0","","","[[0,""img/obj10.png"",""img/obj2.png""],[""img/obj12.png"",""img/obj9.png"",0],[""img/obj6.png"",0,""img/obj11.png""]]","","","1,2,2,2,1,3,2,2,6","45","","","","","","","","","","",""
"vsl-grid-scene-snap","249","969097","0.0-5.0-8.0-44.0","","","[[""img/obj9.png"",""img/obj10.png"",""img/obj2.png""],[""img/obj12.png"",""img/obj11.png"",0],[""img/obj6.png"",0,0]]","","","1,2,2,2,1,3,1,1,6","41","","","","","","","","","","",""
"vsl-grid-scene-snap","250","972106","0.0-5.0-8.0-45.0","","","[[0,""img/obj10.png"",""img/obj2.png""],[""img/obj9.png"",0,""img/obj12.png""],[0,""img/obj11.png"",""img/obj6.png""]]","","","3,2,2,2,1,3,1,2,6","125","","","","","","","","","","",""
"vsl-grid-scene-snap","251","975114","0.0-5.0-8.0-46.0","","","[[0,""img/obj3.png"",""img/obj1.png""],[""img/obj7.png"",0,""img/obj4.png""],[""img/obj10.png"",""img/obj2.png"",0]]","","","3,1,1,1,3,3,2,1,5","96","","","","","","","","","","",""
"vsl-grid-scene-snap","252","978123","0.0-5.0-8.0-47.0","","","[[""img/obj10.png"",""img/obj2.png"",""img/obj3.png""],[0,""img/obj7.png"",""img/obj1.png""],[0,0,""img/obj4.png""]]","","","3,2,1,1,1,3,3,1,5","116","","","","","","","","","","",""
"vsl-grid-attention-check","253","979593","0.0-5.0-9.0-0.0-0.0","","463.80000001192093","[[""img/square.png"",0,""img/square.png""],[0,""img/attention.png"",""img/square.png""],[""img/square.png"",0,""img/square.png""]]","","","","","32","","","","","","","","","",""
"html-keyboard-response","254","980599","0.0-5.0-9.0-1.0","","null"," ","","","","","null","","","","","","","","","",""
"vsl-grid-scene-snap","255","982605","0.0-5.0-10.0-0.0","","","[[""img/obj5.png"",""img/obj8.png"",0],[""img/obj12.png"",0,""img/obj3.png""],[""img/obj6.png"",""img/obj7.png"",0]]","","","1,2,2,1,1,4,3,2,5","63","","","","","","","","","","",""
"vsl-grid-scene-snap","256","985614","0.0-5.0-10.0-1.0","","","[[""img/obj9.png"",0,0],[0,""img/obj11.png"",""img/obj1.png""],[""img/obj5.png"",""img/obj8.png"",""img/obj4.png""]]","","","3,2,1,1,3,4,1,1,6","138","","","","","","","","","","",""
"vsl-grid-scene-snap","257","988623","0.0-5.0-10.0-2.0","","","[[""img/obj5.png"",""img/obj8.png"",0],[""img/obj1.png"",0,""img/obj3.png""],[""img/obj4.png"",""img/obj7.png"",0]]","","","1,2,1,1,1,4,3,2,5","62","","","","","","","","","","",""
"vsl-grid-scene-snap","258","991632","0.0-5.0-10.0-3.0","","","[[""img/obj5.png"",""img/obj8.png"",""img/obj12.png""],[0,""img/obj9.png"",""img/obj6.png""],[0,0,""img/obj11.png""]]","","","3,1,2,1,1,4,2,2,6","83","","","","","","","","","","",""
"vsl-grid-scene-snap","259","994641","0.0-5.0-10.0-4.0","","","[[""img/obj10.png"",""img/obj2.png"",""img/obj12.png""],[0,""img/obj3.png"",""img/obj6.png""],[""img/obj7.png"",0,0]]","","","3,1,2,1,1,3,2,2,5","73","","","","","","","","","","",""
"vsl-grid-scene-snap","260","997650","0.0-5.0-10.0-5.0","","","[[0,""img/obj3.png"",0],[""img/obj7.png"",0,""img/obj12.png""],[""img/obj10.png"",""img/obj2.png"",""img/obj6.png""]]","","","3,2,2,1,3,3,2,1,5","133","","","","","","","","","","",""
"vsl-grid-scene-snap","261","1000659","0.0-5.0-10.0-6.0","","","[[""img/obj9.png"",0,0],[""img/obj12.png"",""img/obj11.png"",0],[""img/obj6.png"",""img/obj5.png"",""img/obj8.png""]]","","","1,2,2,2,3,4,1,1,6","59","","","","","","","","","","",""
"vsl-grid-scene-snap","262","1003668","0.0-5.0-10.0-7.0","","","[[0,""img/obj5.png"",""img/obj8.png""],[0,""img/obj3.png"",""img/obj1.png""],[""img/obj7.png"",0,""img/obj4.png""]]","","","3,2,1,2,1,4,2,2,5","122","","","","","","","","","","",""
"vsl-grid-scene-snap","263","1006676","0.0-5.0-10.0-8.0","","","[[""img/obj9.png"",0,0],[0,""img/obj11.png"",""img/obj12.png""],[""img/obj5.png"",""img/obj8.png"",""img/obj6.png""]]","","","3,2,2,1,3,4,1,1,6","139","","","","","","","","","","",""
"vsl-grid-scene-snap","264","1009685","0.0-5.0-10.0-9.0","","","[[""img/obj1.png"",""img/obj5.png"",""img/obj8.png""],[""img/obj4.png"",""img/obj9.png"",0],[0,0,""img/obj11.png""]]","","","1,1,1,2,1,4,2,2,6","10","","","","","","","","","","",""
"vsl-grid-scene-snap","265","1012694","0.0-5.0-10.0-10.0","","","[[""img/obj5.png"",""img/obj8.png"",0],[0,""img/obj3.png"",""img/obj12.png""],[""img/obj7.png"",0,""img/obj6.png""]]","","","3,2,2,1,1,4,2,2,5","111","","","","","","","","","","",""
"vsl-grid-scene-snap","266","1015703","0.0-5.0-10.0-11.0","","","[[""img/obj12.png"",0,0],[""img/obj6.png"",""img/obj9.png"",0],[""img/obj5.png"",""img/obj8.png"",""img/obj11.png""]]","","","1,1,2,1,3,4,2,2,6","35","","","","","","","","","","",""
"vsl-grid-scene-snap","267","1018711","0.0-5.0-10.0-12.0","","","[[""img/obj5.png"",""img/obj8.png"",""img/obj12.png""],[""img/obj9.png"",0,""img/obj6.png""],[0,""img/obj11.png"",0]]","","","3,1,2,1,1,4,1,2,6","79","","","","","","","","","","",""
"vsl-grid-scene-snap","268","1021720","0.0-5.0-10.0-13.0","","","[[""img/obj5.png"",""img/obj8.png"",""img/obj1.png""],[0,""img/obj9.png"",""img/obj4.png""],[0,0,""img/obj11.png""]]","","","3,1,1,1,1,4,2,2,6","82","","","","","","","","","","",""
"vsl-grid-scene-snap","269","1024729","0.0-5.0-10.0-14.0","","","[[""img/obj5.png"",""img/obj8.png"",""img/obj3.png""],[""img/obj1.png"",""img/obj7.png"",0],[""img/obj4.png"",0,0]]","","","1,2,1,1,1,4,3,1,5","66","","","","","","","","","","",""
"vsl-grid-scene-snap","270","1027738","0.0-5.0-10.0-15.0","","","[[0,""img/obj9.png"",0],[""img/obj1.png"",0,""img/obj11.png""],[""img/obj4.png"",""img/obj5.png"",""img/obj8.png""]]","","","1,2,1,2,3,4,2,1,6","54","","","","","","","","","","",""
"vsl-grid-scene-snap","271","1030747","0.0-5.0-10.0-16.0","","","[[""img/obj9.png"",0,""img/obj12.png""],[0,""img/obj11.png"",""img/obj6.png""],[0,""img/obj10.png"",""img/obj2.png""]]","","","3,1,2,2,3,3,1,1,6","93","","","","","","","","","","",""
"vsl-grid-scene-snap","272","1033756","0.0-5.0-10.0-17.0","","","[[""img/obj5.png"",""img/obj8.png"",""img/obj3.png""],[0,""img/obj7.png"",""img/obj12.png""],[0,0,""img/obj6.png""]]","","","3,2,2,1,1,4,3,1,5","119","","","","","","","","","","",""
"vsl-grid-scene-snap","273","1036765","0.0-5.0-10.0-18.0","","","[[0,""img/obj9.png"",0],[""img/obj12.png"",0,""img/obj11.png""],[""img/obj6.png"",""img/obj5.png"",""img/obj8.png""]]","","","1,2,2,2,3,4,2,1,6","55","","","","","","","","","","",""
"vsl-grid-scene-snap","274","1039775","0.0-5.0-10.0-19.0","","","[[""img/obj1.png"",""img/obj9.png"",0],[""img/obj4.png"",0,""img/obj11.png""],[""img/obj5.png"",""img/obj8.png"",0]]","","","1,1,1,1,3,4,2,1,6","30","","","","","","","","","","",""
"vsl-grid-scene-snap","275","1042783","0.0-5.0-10.0-20.0","","","[[""img/obj1.png"",""img/obj5.png"",""img/obj8.png""],[""img/obj4.png"",""img/obj3.png"",0],[""img/obj7.png"",0,0]]","","","1,1,1,2,1,4,2,2,5","6","","","","","","","","","","",""
"vsl-grid-scene-snap","276","1045792","0.0-5.0-10.0-21.0","","","[[0,""img/obj5.png"",""img/obj8.png""],[""img/obj9.png"",0,""img/obj12.png""],[0,""img/obj11.png"",""img/obj6.png""]]","","","3,2,2,2,1,4,1,2,6","127","","","","","","","","","","",""
"vsl-grid-scene-snap","277","1048800","0.0-5.0-10.0-22.0","","","[[""img/obj12.png"",0,""img/obj3.png""],[""img/obj6.png"",""img/obj7.png"",0],[0,""img/obj10.png"",""img/obj2.png""]]","","","1,1,2,2,3,3,3,1,5","13","","","","","","","","","","",""
"vsl-grid-scene-snap","278","1051809","0.0-5.0-10.0-23.0","","","[[""img/obj1.png"",0,""img/obj3.png""],[""img/obj4.png"",""img/obj7.png"",0],[""img/obj5.png"",""img/obj8.png"",0]]","","","1,1,1,1,3,4,3,1,5","26","","","","","","","","","","",""
"vsl-grid-scene-snap","279","1054819","0.0-5.0-10.0-24.0","","","[[""img/obj5.png"",""img/obj8.png"",""img/obj3.png""],[""img/obj12.png"",""img/obj7.png"",0],[""img/obj6.png"",0,0]]","","","1,2,2,1,1,4,3,1,5","67","","","","","","","","","","",""
"vsl-grid-scene-snap","280","1057827","0.0-5.0-10.0-25.0","","","[[""img/obj5.png"",""img/obj8.png"",""img/obj1.png""],[""img/obj9.png"",0,""img/obj4.png""],[0,""img/obj11.png"",0]]","","","3,1,1,1,1,4,1,2,6","78","","","","","","","","","","",""
"vsl-grid-scene-snap","281","1060836","0.0-5.0-10.0-26.0","","","[[0,""img/obj10.png"",""img/obj2.png""],[""img/obj9.png"",0,""img/obj1.png""],[0,""img/obj11.png"",""img/obj4.png""]]","","","3,2,1,2,1,3,1,2,6","124","","","","","","","","","","",""
"vsl-grid-scene-snap","282","1063845","0.0-5.0-10.0-27.0","","","[[""img/obj5.png"",""img/obj8.png"",""img/obj1.png""],[0,""img/obj3.png"",""img/obj4.png""],[""img/obj7.png"",0,0]]","","","3,1,1,1,1,4,2,2,5","74","","","","","","","","","","",""
"vsl-grid-scene-snap","283","1066853","0.0-5.0-10.0-28.0","","","[[""img/obj9.png"",0,0],[""img/obj1.png"",""img/obj11.png"",0],[""img/obj4.png"",""img/obj10.png"",""img/obj2.png""]]","","","1,2,1,2,3,3,1,1,6","56","","","","","","","","","","",""
"vsl-grid-scene-snap","284","1069862","0.0-5.0-10.0-29.0","","","[[0,""img/obj3.png"",""img/obj12.png""],[""img/obj7.png"",0,""img/obj6.png""],[""img/obj5.png"",""img/obj8.png"",0]]","","","3,1,2,1,3,4,2,1,5","99","","","","","","","","","","",""
"vsl-grid-scene-snap","285","1072871","0.0-5.0-10.0-30.0","","","[[0,0,""img/obj1.png""],[0,""img/obj3.png"",""img/obj4.png""],[""img/obj7.png"",""img/obj5.png"",""img/obj8.png""]]","","","3,1,1,2,3,4,2,2,5","86","","","","","","","","","","",""
"vsl-grid-scene-snap","286","1075880","0.0-5.0-10.0-31.0","","","[[""img/obj9.png"",""img/obj5.png"",""img/obj8.png""],[0,""img/obj11.png"",""img/obj12.png""],[0,0,""img/obj6.png""]]","","","3,2,2,2,1,4,1,1,6","131","","","","","","","","","","",""
"vsl-grid-scene-snap","287","1078889","0.0-5.0-10.0-32.0","","","[[""img/obj10.png"",""img/obj2.png"",""img/obj1.png""],[""img/obj9.png"",0,""img/obj4.png""],[0,""img/obj11.png"",0]]","","","3,1,1,1,1,3,1,2,6","76","","","","","","","","","","",""
"vsl-grid-scene-snap","288","1081898","0.0-5.0-10.0-33.0","","","[[""img/obj1.png"",0,0],[""img/obj4.png"",""img/obj3.png"",0],[""img/obj7.png"",""img/obj10.png"",""img/obj2.png""]]","","","1,1,1,2,3,3,2,2,5","16","","","","","","","","","","",""
"vsl-grid-scene-snap","289","1084907","0.0-5.0-10.0-34.0","","","[[""img/obj9.png"",""img/obj10.png"",""img/obj2.png""],[0,""img/obj11.png"",""img/obj12.png""],[0,0,""img/obj6.png""]]","","","3,2,2,2,1,3,1,1,6","129","","","","","","","","","","",""
"vsl-grid-scene-snap","290","1087916","0.0-5.0-10.0-35.0","","","[[""img/obj5.png"",""img/obj8.png"",0],[""img/obj1.png"",""img/obj9.png"",0],[""img/obj4.png"",0,""img/obj11.png""]]","","","1,2,1,1,1,4,2,2,6","70","","","","","","","","","","",""
"vsl-grid-scene-snap","291","1090941","0.0-5.0-10.0-36.0","","","[[""img/obj1.png"",""img/obj5.png"",""img/obj8.png""],[""img/obj4.png"",0,""img/obj3.png""],[0,""img/obj7.png"",0]]","","","1,1,1,2,1,4,3,2,5","2","","","","","","","","","","",""
"vsl-grid-scene-snap","292","1093950","0.0-5.0-10.0-37.0","","","[[""img/obj5.png"",""img/obj8.png"",0],[""img/obj12.png"",""img/obj9.png"",0],[""img/obj6.png"",0,""img/obj11.png""]]","","","1,2,2,1,1,4,2,2,6","71","","","","","","","","","","",""
"vsl-grid-scene-snap","293","1096958","0.0-5.0-10.0-38.0","","","[[""img/obj10.png"",""img/obj2.png"",""img/obj3.png""],[0,""img/obj7.png"",""img/obj12.png""],[0,0,""img/obj6.png""]]","","","3,2,2,1,1,3,3,1,5","117","","","","","","","","","","",""
"vsl-grid-scene-snap","294","1099967","0.0-5.0-10.0-39.0","","","[[0,""img/obj3.png"",0],[""img/obj7.png"",0,""img/obj12.png""],[""img/obj5.png"",""img/obj8.png"",""img/obj6.png""]]","","","3,2,2,1,3,4,2,1,5","135","","","","","","","","","","",""
"vsl-grid-scene-snap","295","1102976","0.0-5.0-10.0-40.0","","","[[""img/obj10.png"",""img/obj2.png"",""img/obj3.png""],[""img/obj1.png"",""img/obj7.png"",0],[""img/obj4.png"",0,0]]","","","1,2,1,1,1,3,3,1,5","64","","","","","","","","","","",""
"vsl-grid-scene-snap","296","1105984","0.0-5.0-10.0-41.0","","","[[0,""img/obj3.png"",""img/obj1.png""],[""img/obj7.png"",0,""img/obj4.png""],[0,""img/obj5.png"",""img/obj8.png""]]","","","3,1,1,2,3,4,2,1,5","90","","","","","","","","","","",""
"vsl-grid-scene-snap","297","1108993","0.0-5.0-10.0-42.0","","","[[""img/obj10.png"",""img/obj2.png"",0],[""img/obj12.png"",0,""img/obj3.png""],[""img/obj6.png"",""img/obj7.png"",0]]","","","1,2,2,1,1,3,3,2,5","61","","","","","","","","","","",""
"vsl-grid-scene-snap","298","1112018","0.0-5.0-10.0-43.0","","","[[""img/obj10.png"",""img/obj2.png"",0],[""img/obj12.png"",""img/obj9.png"",0],[""img/obj6.png"",0,""img/obj11.png""]]","","","1,2,2,1,1,3,2,2,6","69","","","","","","","","","","",""
"vsl-grid-scene-snap","299","1115030","0.0-5.0-10.0-44.0","","","[[""img/obj5.png"",""img/obj8.png"",""img/obj3.png""],[0,""img/obj7.png"",""img/obj1.png""],[0,0,""img/obj4.png""]]","","","3,2,1,1,1,4,3,1,5","118","","","","","","","","","","",""
"vsl-grid-scene-snap","300","1118043","0.0-5.0-10.0-45.0","","","[[""img/obj9.png"",0,""img/obj12.png""],[0,""img/obj11.png"",""img/obj6.png""],[""img/obj5.png"",""img/obj8.png"",0]]","","","3,1,2,1,3,4,1,1,6","103","","","","","","","","","","",""
"vsl-grid-scene-snap","301","1121067","0.0-5.0-10.0-46.0","","","[[""img/obj12.png"",""img/obj9.png"",0],[""img/obj6.png"",0,""img/obj11.png""],[""img/obj10.png"",""img/obj2.png"",0]]","","","1,1,2,1,3,3,2,1,6","29","","","","","","","","","","",""
"vsl-grid-scene-snap","302","1124077","0.0-5.0-10.0-47.0","","","[[""img/obj12.png"",""img/obj5.png"",""img/obj8.png""],[""img/obj6.png"",""img/obj3.png"",0],[""img/obj7.png"",0,0]]","","","1,1,2,2,1,4,2,2,5","7","","","","","","","","","","",""
"html-keyboard-response","303","1126083","0.0-6.0-0.0","","null","<p>Your practice session is now over.</p><p>The test session will start in 2 minutes.<p><p>You can use these two minutes to relaxe your eyes.</p><p> <br> </p><p>Seconds remaining:</p><p> <br> </p>120","","","","","null","","","","","","","","","",""
"html-keyboard-response","304","1127086","0.0-6.0-1.0","","null","<p>Your practice session is now over.</p><p>The test session will start in 2 minutes.<p><p>You can use these two minutes to relaxe your eyes.</p><p> <br> </p><p>Seconds remaining:</p><p> <br> </p>119","","","","","null","","","","","","","","","",""
"html-keyboard-response","305","1128089","0.0-6.0-2.0","","null","<p>Your practice session is now over.</p><p>The test session will start in 2 minutes.<p><p>You can use these two minutes to relaxe your eyes.</p><p> <br> </p><p>Seconds remaining:</p><p> <br> </p>118","","","","","null","","","","","","","","","",""
"html-keyboard-response","306","1129092","0.0-6.0-3.0","","null","<p>Your practice session is now over.</p><p>The test session will start in 2 minutes.<p><p>You can use these two minutes to relaxe your eyes.</p><p> <br> </p><p>Seconds remaining:</p><p> <br> </p>117","","","","","null","","","","","","","","","",""
"html-keyboard-response","307","1130095","0.0-6.0-4.0","","null","<p>Your practice session is now over.</p><p>The test session will start in 2 minutes.<p><p>You can use these two minutes to relaxe your eyes.</p><p> <br> </p><p>Seconds remaining:</p><p> <br> </p>116","","","","","null","","","","","","","","","",""
"html-keyboard-response","308","1131098","0.0-6.0-5.0","","null","<p>Your practice session is now over.</p><p>The test session will start in 2 minutes.<p><p>You can use these two minutes to relaxe your eyes.</p><p> <br> </p><p>Seconds remaining:</p><p> <br> </p>115","","","","","null","","","","","","","","","",""
"html-keyboard-response","309","1132100","0.0-6.0-6.0","","null","<p>Your practice session is now over.</p><p>The test session will start in 2 minutes.<p><p>You can use these two minutes to relaxe your eyes.</p><p> <br> </p><p>Seconds remaining:</p><p> <br> </p>114","","","","","null","","","","","","","","","",""
"html-keyboard-response","310","1133103","0.0-6.0-7.0","","null","<p>Your practice session is now over.</p><p>The test session will start in 2 minutes.<p><p>You can use these two minutes to relaxe your eyes.</p><p> <br> </p><p>Seconds remaining:</p><p> <br> </p>113","","","","","null","","","","","","","","","",""
"html-keyboard-response","311","1134106","0.0-6.0-8.0","","null","<p>Your practice session is now over.</p><p>The test session will start in 2 minutes.<p><p>You can use these two minutes to relaxe your eyes.</p><p> <br> </p><p>Seconds remaining:</p><p> <br> </p>112","","","","","null","","","","","","","","","",""
"html-keyboard-response","312","1135109","0.0-6.0-9.0","","null","<p>Your practice session is now over.</p><p>The test session will start in 2 minutes.<p><p>You can use these two minutes to relaxe your eyes.</p><p> <br> </p><p>Seconds remaining:</p><p> <br> </p>111","","","","","null","","","","","","","","","",""
"html-keyboard-response","313","1136112","0.0-6.0-10.0","","null","<p>Your practice session is now over.</p><p>The test session will start in 2 minutes.<p><p>You can use these two minutes to relaxe your eyes.</p><p> <br> </p><p>Seconds remaining:</p><p> <br> </p>110","","","","","null","","","","","","","","","",""
"html-keyboard-response","314","1137115","0.0-6.0-11.0","","null","<p>Your practice session is now over.</p><p>The test session will start in 2 minutes.<p><p>You can use these two minutes to relaxe your eyes.</p><p> <br> </p><p>Seconds remaining:</p><p> <br> </p>109","","","","","null","","","","","","","","","",""
"html-keyboard-response","315","1138117","0.0-6.0-12.0","","null","<p>Your practice session is now over.</p><p>The test session will start in 2 minutes.<p><p>You can use these two minutes to relaxe your eyes.</p><p> <br> </p><p>Seconds remaining:</p><p> <br> </p>108","","","","","null","","","","","","","","","",""
"html-keyboard-response","316","1139120","0.0-6.0-13.0","","null","<p>Your practice session is now over.</p><p>The test session will start in 2 minutes.<p><p>You can use these two minutes to relaxe your eyes.</p><p> <br> </p><p>Seconds remaining:</p><p> <br> </p>107","","","","","null","","","","","","","","","",""
"html-keyboard-response","317","1140123","0.0-6.0-14.0","","null","<p>Your practice session is now over.</p><p>The test session will start in 2 minutes.<p><p>You can use these two minutes to relaxe your eyes.</p><p> <br> </p><p>Seconds remaining:</p><p> <br> </p>106","","","","","null","","","","","","","","","",""
"html-keyboard-response","318","1141126","0.0-6.0-15.0","","null","<p>Your practice session is now over.</p><p>The test session will start in 2 minutes.<p><p>You can use these two minutes to relaxe your eyes.</p><p> <br> </p><p>Seconds remaining:</p><p> <br> </p>105","","","","","null","","","","","","","","","",""
"html-keyboard-response","319","1142129","0.0-6.0-16.0","","null","<p>Your practice session is now over.</p><p>The test session will start in 2 minutes.<p><p>You can use these two minutes to relaxe your eyes.</p><p> <br> </p><p>Seconds remaining:</p><p> <br> </p>104","","","","","null","","","","","","","","","",""
"html-keyboard-response","320","1143132","0.0-6.0-17.0","","null","<p>Your practice session is now over.</p><p>The test session will start in 2 minutes.<p><p>You can use these two minutes to relaxe your eyes.</p><p> <br> </p><p>Seconds remaining:</p><p> <br> </p>103","","","","","null","","","","","","","","","",""
"html-keyboard-response","321","1144135","0.0-6.0-18.0","","null","<p>Your practice session is now over.</p><p>The test session will start in 2 minutes.<p><p>You can use these two minutes to relaxe your eyes.</p><p> <br> </p><p>Seconds remaining:</p><p> <br> </p>102","","","","","null","","","","","","","","","",""
"html-keyboard-response","322","1145138","0.0-6.0-19.0","","null","<p>Your practice session is now over.</p><p>The test session will start in 2 minutes.<p><p>You can use these two minutes to relaxe your eyes.</p><p> <br> </p><p>Seconds remaining:</p><p> <br> </p>101","","","","","null","","","","","","","","","",""
"html-keyboard-response","323","1146141","0.0-6.0-20.0","","null","<p>Your practice session is now over.</p><p>The test session will start in 2 minutes.<p><p>You can use these two minutes to relaxe your eyes.</p><p> <br> </p><p>Seconds remaining:</p><p> <br> </p>100","","","","","null","","","","","","","","","",""
"html-keyboard-response","324","1147144","0.0-6.0-21.0","","null","<p>Your practice session is now over.</p><p>The test session will start in 2 minutes.<p><p>You can use these two minutes to relaxe your eyes.</p><p> <br> </p><p>Seconds remaining:</p><p> <br> </p>99","","","","","null","","","","","","","","","",""
"html-keyboard-response","325","1148147","0.0-6.0-22.0","","null","<p>Your practice session is now over.</p><p>The test session will start in 2 minutes.<p><p>You can use these two minutes to relaxe your eyes.</p><p> <br> </p><p>Seconds remaining:</p><p> <br> </p>98","","","","","null","","","","","","","","","",""
"html-keyboard-response","326","1149150","0.0-6.0-23.0","","null","<p>Your practice session is now over.</p><p>The test session will start in 2 minutes.<p><p>You can use these two minutes to relaxe your eyes.</p><p> <br> </p><p>Seconds remaining:</p><p> <br> </p>97","","","","","null","","","","","","","","","",""
"html-keyboard-response","327","1150153","0.0-6.0-24.0","","null","<p>Your practice session is now over.</p><p>The test session will start in 2 minutes.<p><p>You can use these two minutes to relaxe your eyes.</p><p> <br> </p><p>Seconds remaining:</p><p> <br> </p>96","","","","","null","","","","","","","","","",""
"html-keyboard-response","328","1151156","0.0-6.0-25.0","","null","<p>Your practice session is now over.</p><p>The test session will start in 2 minutes.<p><p>You can use these two minutes to relaxe your eyes.</p><p> <br> </p><p>Seconds remaining:</p><p> <br> </p>95","","","","","null","","","","","","","","","",""
"html-keyboard-response","329","1152159","0.0-6.0-26.0","","null","<p>Your practice session is now over.</p><p>The test session will start in 2 minutes.<p><p>You can use these two minutes to relaxe your eyes.</p><p> <br> </p><p>Seconds remaining:</p><p> <br> </p>94","","","","","null","","","","","","","","","",""
"html-keyboard-response","330","1153162","0.0-6.0-27.0","","null","<p>Your practice session is now over.</p><p>The test session will start in 2 minutes.<p><p>You can use these two minutes to relaxe your eyes.</p><p> <br> </p><p>Seconds remaining:</p><p> <br> </p>93","","","","","null","","","","","","","","","",""
"html-keyboard-response","331","1154165","0.0-6.0-28.0","","null","<p>Your practice session is now over.</p><p>The test session will start in 2 minutes.<p><p>You can use these two minutes to relaxe your eyes.</p><p> <br> </p><p>Seconds remaining:</p><p> <br> </p>92","","","","","null","","","","","","","","","",""
"html-keyboard-response","332","1155168","0.0-6.0-29.0","","null","<p>Your practice session is now over.</p><p>The test session will start in 2 minutes.<p><p>You can use these two minutes to relaxe your eyes.</p><p> <br> </p><p>Seconds remaining:</p><p> <br> </p>91","","","","","null","","","","","","","","","",""
"html-keyboard-response","333","1156178","0.0-6.0-30.0","","null","<p>Your practice session is now over.</p><p>The test session will start in 2 minutes.<p><p>You can use these two minutes to relaxe your eyes.</p><p> <br> </p><p>Seconds remaining:</p><p> <br> </p>90","","","","","null","","","","","","","","","",""
"html-keyboard-response","334","1157180","0.0-6.0-31.0","","null","<p>Your practice session is now over.</p><p>The test session will start in 2 minutes.<p><p>You can use these two minutes to relaxe your eyes.</p><p> <br> </p><p>Seconds remaining:</p><p> <br> </p>89","","","","","null","","","","","","","","","",""
"html-keyboard-response","335","1158196","0.0-6.0-32.0","","null","<p>Your practice session is now over.</p><p>The test session will start in 2 minutes.<p><p>You can use these two minutes to relaxe your eyes.</p><p> <br> </p><p>Seconds remaining:</p><p> <br> </p>88","","","","","null","","","","","","","","","",""
"html-keyboard-response","336","1159212","0.0-6.0-33.0","","null","<p>Your practice session is now over.</p><p>The test session will start in 2 minutes.<p><p>You can use these two minutes to relaxe your eyes.</p><p> <br> </p><p>Seconds remaining:</p><p> <br> </p>87","","","","","null","","","","","","","","","",""
"html-keyboard-response","337","1160232","0.0-6.0-34.0","","null","<p>Your practice session is now over.</p><p>The test session will start in 2 minutes.<p><p>You can use these two minutes to relaxe your eyes.</p><p> <br> </p><p>Seconds remaining:</p><p> <br> </p>86","","","","","null","","","","","","","","","",""
"html-keyboard-response","338","1161235","0.0-6.0-35.0","","null","<p>Your practice session is now over.</p><p>The test session will start in 2 minutes.<p><p>You can use these two minutes to relaxe your eyes.</p><p> <br> </p><p>Seconds remaining:</p><p> <br> </p>85","","","","","null","","","","","","","","","",""
"html-keyboard-response","339","1162237","0.0-6.0-36.0","","null","<p>Your practice session is now over.</p><p>The test session will start in 2 minutes.<p><p>You can use these two minutes to relaxe your eyes.</p><p> <br> </p><p>Seconds remaining:</p><p> <br> </p>84","","","","","null","","","","","","","","","",""
"html-keyboard-response","340","1163240","0.0-6.0-37.0","","null","<p>Your practice session is now over.</p><p>The test session will start in 2 minutes.<p><p>You can use these two minutes to relaxe your eyes.</p><p> <br> </p><p>Seconds remaining:</p><p> <br> </p>83","","","","","null","","","","","","","","","",""
"html-keyboard-response","341","1164243","0.0-6.0-38.0","","null","<p>Your practice session is now over.</p><p>The test session will start in 2 minutes.<p><p>You can use these two minutes to relaxe your eyes.</p><p> <br> </p><p>Seconds remaining:</p><p> <br> </p>82","","","","","null","","","","","","","","","",""
"html-keyboard-response","342","1165246","0.0-6.0-39.0","","null","<p>Your practice session is now over.</p><p>The test session will start in 2 minutes.<p><p>You can use these two minutes to relaxe your eyes.</p><p> <br> </p><p>Seconds remaining:</p><p> <br> </p>81","","","","","null","","","","","","","","","",""
"html-keyboard-response","343","1166248","0.0-6.0-40.0","","null","<p>Your practice session is now over.</p><p>The test session will start in 2 minutes.<p><p>You can use these two minutes to relaxe your eyes.</p><p> <br> </p><p>Seconds remaining:</p><p> <br> </p>80","","","","","null","","","","","","","","","",""
"html-keyboard-response","344","1167251","0.0-6.0-41.0","","null","<p>Your practice session is now over.</p><p>The test session will start in 2 minutes.<p><p>You can use these two minutes to relaxe your eyes.</p><p> <br> </p><p>Seconds remaining:</p><p> <br> </p>79","","","","","null","","","","","","","","","",""
"html-keyboard-response","345","1168254","0.0-6.0-42.0","","null","<p>Your practice session is now over.</p><p>The test session will start in 2 minutes.<p><p>You can use these two minutes to relaxe your eyes.</p><p> <br> </p><p>Seconds remaining:</p><p> <br> </p>78","","","","","null","","","","","","","","","",""
"html-keyboard-response","346","1169257","0.0-6.0-43.0","","null","<p>Your practice session is now over.</p><p>The test session will start in 2 minutes.<p><p>You can use these two minutes to relaxe your eyes.</p><p> <br> </p><p>Seconds remaining:</p><p> <br> </p>77","","","","","null","","","","","","","","","",""
"html-keyboard-response","347","1170260","0.0-6.0-44.0","","null","<p>Your practice session is now over.</p><p>The test session will start in 2 minutes.<p><p>You can use these two minutes to relaxe your eyes.</p><p> <br> </p><p>Seconds remaining:</p><p> <br> </p>76","","","","","null","","","","","","","","","",""
"html-keyboard-response","348","1171263","0.0-6.0-45.0","","null","<p>Your practice session is now over.</p><p>The test session will start in 2 minutes.<p><p>You can use these two minutes to relaxe your eyes.</p><p> <br> </p><p>Seconds remaining:</p><p> <br> </p>75","","","","","null","","","","","","","","","",""
"html-keyboard-response","349","1172266","0.0-6.0-46.0","","null","<p>Your practice session is now over.</p><p>The test session will start in 2 minutes.<p><p>You can use these two minutes to relaxe your eyes.</p><p> <br> </p><p>Seconds remaining:</p><p> <br> </p>74","","","","","null","","","","","","","","","",""
"html-keyboard-response","350","1173268","0.0-6.0-47.0","","null","<p>Your practice session is now over.</p><p>The test session will start in 2 minutes.<p><p>You can use these two minutes to relaxe your eyes.</p><p> <br> </p><p>Seconds remaining:</p><p> <br> </p>73","","","","","null","","","","","","","","","",""
"html-keyboard-response","351","1174271","0.0-6.0-48.0","","null","<p>Your practice session is now over.</p><p>The test session will start in 2 minutes.<p><p>You can use these two minutes to relaxe your eyes.</p><p> <br> </p><p>Seconds remaining:</p><p> <br> </p>72","","","","","null","","","","","","","","","",""
"html-keyboard-response","352","1175274","0.0-6.0-49.0","","null","<p>Your practice session is now over.</p><p>The test session will start in 2 minutes.<p><p>You can use these two minutes to relaxe your eyes.</p><p> <br> </p><p>Seconds remaining:</p><p> <br> </p>71","","","","","null","","","","","","","","","",""
"html-keyboard-response","353","1176277","0.0-6.0-50.0","","null","<p>Your practice session is now over.</p><p>The test session will start in 2 minutes.<p><p>You can use these two minutes to relaxe your eyes.</p><p> <br> </p><p>Seconds remaining:</p><p> <br> </p>70","","","","","null","","","","","","","","","",""
"html-keyboard-response","354","1177280","0.0-6.0-51.0","","null","<p>Your practice session is now over.</p><p>The test session will start in 2 minutes.<p><p>You can use these two minutes to relaxe your eyes.</p><p> <br> </p><p>Seconds remaining:</p><p> <br> </p>69","","","","","null","","","","","","","","","",""
"html-keyboard-response","355","1178283","0.0-6.0-52.0","","null","<p>Your practice session is now over.</p><p>The test session will start in 2 minutes.<p><p>You can use these two minutes to relaxe your eyes.</p><p> <br> </p><p>Seconds remaining:</p><p> <br> </p>68","","","","","null","","","","","","","","","",""
"html-keyboard-response","356","1179285","0.0-6.0-53.0","","null","<p>Your practice session is now over.</p><p>The test session will start in 2 minutes.<p><p>You can use these two minutes to relaxe your eyes.</p><p> <br> </p><p>Seconds remaining:</p><p> <br> </p>67","","","","","null","","","","","","","","","",""
"html-keyboard-response","357","1180288","0.0-6.0-54.0","","null","<p>Your practice session is now over.</p><p>The test session will start in 2 minutes.<p><p>You can use these two minutes to relaxe your eyes.</p><p> <br> </p><p>Seconds remaining:</p><p> <br> </p>66","","","","","null","","","","","","","","","",""
"html-keyboard-response","358","1181291","0.0-6.0-55.0","","null","<p>Your practice session is now over.</p><p>The test session will start in 2 minutes.<p><p>You can use these two minutes to relaxe your eyes.</p><p> <br> </p><p>Seconds remaining:</p><p> <br> </p>65","","","","","null","","","","","","","","","",""
"html-keyboard-response","359","1182294","0.0-6.0-56.0","","null","<p>Your practice session is now over.</p><p>The test session will start in 2 minutes.<p><p>You can use these two minutes to relaxe your eyes.</p><p> <br> </p><p>Seconds remaining:</p><p> <br> </p>64","","","","","null","","","","","","","","","",""
"html-keyboard-response","360","1183297","0.0-6.0-57.0","","null","<p>Your practice session is now over.</p><p>The test session will start in 2 minutes.<p><p>You can use these two minutes to relaxe your eyes.</p><p> <br> </p><p>Seconds remaining:</p><p> <br> </p>63","","","","","null","","","","","","","","","",""
"html-keyboard-response","361","1184299","0.0-6.0-58.0","","null","<p>Your practice session is now over.</p><p>The test session will start in 2 minutes.<p><p>You can use these two minutes to relaxe your eyes.</p><p> <br> </p><p>Seconds remaining:</p><p> <br> </p>62","","","","","null","","","","","","","","","",""
"html-keyboard-response","362","1185302","0.0-6.0-59.0","","null","<p>Your practice session is now over.</p><p>The test session will start in 2 minutes.<p><p>You can use these two minutes to relaxe your eyes.</p><p> <br> </p><p>Seconds remaining:</p><p> <br> </p>61","","","","","null","","","","","","","","","",""
"html-keyboard-response","363","1186305","0.0-6.0-60.0","","null","<p>Your practice session is now over.</p><p>The test session will start in 2 minutes.<p><p>You can use these two minutes to relaxe your eyes.</p><p> <br> </p><p>Seconds remaining:</p><p> <br> </p>60","","","","","null","","","","","","","","","",""
"html-keyboard-response","364","1187308","0.0-6.0-61.0","","null","<p>Your practice session is now over.</p><p>The test session will start in 2 minutes.<p><p>You can use these two minutes to relaxe your eyes.</p><p> <br> </p><p>Seconds remaining:</p><p> <br> </p>59","","","","","null","","","","","","","","","",""
"html-keyboard-response","365","1188311","0.0-6.0-62.0","","null","<p>Your practice session is now over.</p><p>The test session will start in 2 minutes.<p><p>You can use these two minutes to relaxe your eyes.</p><p> <br> </p><p>Seconds remaining:</p><p> <br> </p>58","","","","","null","","","","","","","","","",""
"html-keyboard-response","366","1189314","0.0-6.0-63.0","","null","<p>Your practice session is now over.</p><p>The test session will start in 2 minutes.<p><p>You can use these two minutes to relaxe your eyes.</p><p> <br> </p><p>Seconds remaining:</p><p> <br> </p>57","","","","","null","","","","","","","","","",""
"html-keyboard-response","367","1190317","0.0-6.0-64.0","","null","<p>Your practice session is now over.</p><p>The test session will start in 2 minutes.<p><p>You can use these two minutes to relaxe your eyes.</p><p> <br> </p><p>Seconds remaining:</p><p> <br> </p>56","","","","","null","","","","","","","","","",""
"html-keyboard-response","368","1191320","0.0-6.0-65.0","","null","<p>Your practice session is now over.</p><p>The test session will start in 2 minutes.<p><p>You can use these two minutes to relaxe your eyes.</p><p> <br> </p><p>Seconds remaining:</p><p> <br> </p>55","","","","","null","","","","","","","","","",""
"html-keyboard-response","369","1192322","0.0-6.0-66.0","","null","<p>Your practice session is now over.</p><p>The test session will start in 2 minutes.<p><p>You can use these two minutes to relaxe your eyes.</p><p> <br> </p><p>Seconds remaining:</p><p> <br> </p>54","","","","","null","","","","","","","","","",""
"html-keyboard-response","370","1193325","0.0-6.0-67.0","","null","<p>Your practice session is now over.</p><p>The test session will start in 2 minutes.<p><p>You can use these two minutes to relaxe your eyes.</p><p> <br> </p><p>Seconds remaining:</p><p> <br> </p>53","","","","","null","","","","","","","","","",""
"html-keyboard-response","371","1194329","0.0-6.0-68.0","","null","<p>Your practice session is now over.</p><p>The test session will start in 2 minutes.<p><p>You can use these two minutes to relaxe your eyes.</p><p> <br> </p><p>Seconds remaining:</p><p> <br> </p>52","","","","","null","","","","","","","","","",""
"html-keyboard-response","372","1195332","0.0-6.0-69.0","","null","<p>Your practice session is now over.</p><p>The test session will start in 2 minutes.<p><p>You can use these two minutes to relaxe your eyes.</p><p> <br> </p><p>Seconds remaining:</p><p> <br> </p>51","","","","","null","","","","","","","","","",""
"html-keyboard-response","373","1196335","0.0-6.0-70.0","","null","<p>Your practice session is now over.</p><p>The test session will start in 2 minutes.<p><p>You can use these two minutes to relaxe your eyes.</p><p> <br> </p><p>Seconds remaining:</p><p> <br> </p>50","","","","","null","","","","","","","","","",""
"html-keyboard-response","374","1197351","0.0-6.0-71.0","","null","<p>Your practice session is now over.</p><p>The test session will start in 2 minutes.<p><p>You can use these two minutes to relaxe your eyes.</p><p> <br> </p><p>Seconds remaining:</p><p> <br> </p>49","","","","","null","","","","","","","","","",""
"html-keyboard-response","375","1198354","0.0-6.0-72.0","","null","<p>Your practice session is now over.</p><p>The test session will start in 2 minutes.<p><p>You can use these two minutes to relaxe your eyes.</p><p> <br> </p><p>Seconds remaining:</p><p> <br> </p>48","","","","","null","","","","","","","","","",""
"html-keyboard-response","376","1199357","0.0-6.0-73.0","","null","<p>Your practice session is now over.</p><p>The test session will start in 2 minutes.<p><p>You can use these two minutes to relaxe your eyes.</p><p> <br> </p><p>Seconds remaining:</p><p> <br> </p>47","","","","","null","","","","","","","","","",""
"html-keyboard-response","377","1200360","0.0-6.0-74.0","","null","<p>Your practice session is now over.</p><p>The test session will start in 2 minutes.<p><p>You can use these two minutes to relaxe your eyes.</p><p> <br> </p><p>Seconds remaining:</p><p> <br> </p>46","","","","","null","","","","","","","","","",""
"html-keyboard-response","378","1201362","0.0-6.0-75.0","","null","<p>Your practice session is now over.</p><p>The test session will start in 2 minutes.<p><p>You can use these two minutes to relaxe your eyes.</p><p> <br> </p><p>Seconds remaining:</p><p> <br> </p>45","","","","","null","","","","","","","","","",""
"html-keyboard-response","379","1202366","0.0-6.0-76.0","","null","<p>Your practice session is now over.</p><p>The test session will start in 2 minutes.<p><p>You can use these two minutes to relaxe your eyes.</p><p> <br> </p><p>Seconds remaining:</p><p> <br> </p>44","","","","","null","","","","","","","","","",""
