"trial_type","trial_index","time_elapsed","internal_node_id","success","rt","stimulus","button_pressed","responses","training_vector","training_matrixRow","key_press","test_part","correct_response","test_number","test_vector","correct","image_switchboard","scene_order","participant","study","session"
"pavlovia","0","3","0.0-0.0","","","","","","","","","","","","","","","","","",""
"fullscreen","1","3200","0.0-1.0","true","","","","","","","","","","","","","","","","",""
"html-button-response","2","13301","0.0-2.0","","10098.400000095367","<p style=""text-align: justify;margin-left: 15%; margin-right:15%"">You are participating in an experiment at the Vision Lab of the Department of Cognitive Science, Central European University.  One of our main questions is what kind of representations we can create about our visual environment and how these representations influence our behavior. At our lab we use multiple methods, for example behavioral experiments and computational models. In this experiment you will observe scenes consisting of abstract shapes and answer simple questions about them. <br><br>At the beginning and throughout the experiment you will receive precise information about what to do. The experiment takes about 25 minutes in total. <br><br>The test is voluntary, and you can withdraw your participation at any time. We treat your personal information confidentially. <br>Only those people who work on this research project have access to your data. We will work with group level statistics. We will only report the results of the group in scientific publications and conferences. This research was approved by the Hungarian Psychological Research Ethics Committee.<br><br>If you have any further questions about the study, you can contact the experimenter, Beata Tunde Szabo, PhD Student. Contact: 1051 Nador u. 11. E-mail: szabo_beata-tunde@phd.ceu.edu <br><br>By pressing the button below you indicate that you read this information, found it sufficent, and you consent to participate in the experiment. <br><br> </p>","0","","","","","","","","","","","","","",""
"survey-html-form","3","19967","0.0-3.0","","6665.599999904633","","","{""Age"":""46"",""gender"":""Female"",""gender_other"":""""}","","","","","","","","","","","","",""
"html-button-response","4","40045","0.0-4.0","","20077.099999904633","<p style=""text-align: justify;margin-left: 15%; margin-right:15%""> This is your practice session. You will see a checkerboard with random simple shapes appearing in different positions in the checkerboard. Your task is simply to observe the patterns so that you would be able to answer some questions about the sequence after the practice session.  The session will last for about 15 minutes.  Please, pay attention to EACH display! <br><br>Occasionally, there will be an attention check asking you to press the spacebar. ","0","","","","","","","","","","","","","",""
"vsl-grid-scene-snap","5","42055","0.0-5.0-0.0-0.0","","","[[0,0,""img/obj9.png""],[""img/obj11.png"",""img/obj2.png"",0],[""img/obj1.png"",""img/obj5.png"",""img/obj6.png""]]","","","1,2,2,2,3,3,3,1,5","49","","","","","","","","","","",""
"vsl-grid-scene-snap","6","45071","0.0-5.0-0.0-1.0","","","[[""img/obj11.png"",""img/obj4.png"",""img/obj3.png""],[""img/obj1.png"",0,""img/obj9.png""],[0,""img/obj2.png"",0]]","","","1,1,2,2,1,4,3,2,5","3","","","","","","","","","","",""
"vsl-grid-scene-snap","7","48091","0.0-5.0-0.0-2.0","","","[[""img/obj11.png"",""img/obj5.png"",""img/obj6.png""],[""img/obj1.png"",0,""img/obj9.png""],[0,""img/obj2.png"",0]]","","","1,1,2,2,1,3,3,2,5","1","","","","","","","","","","",""
"vsl-grid-scene-snap","8","51110","0.0-5.0-0.0-3.0","","","[[""img/obj8.png"",""img/obj4.png"",""img/obj3.png""],[0,""img/obj12.png"",""img/obj11.png""],[0,0,""img/obj1.png""]]","","","3,2,2,2,1,4,1,1,6","131","","","","","","","","","","",""
"vsl-grid-scene-snap","9","54119","0.0-5.0-0.0-4.0","","","[[""img/obj11.png"",""img/obj8.png"",0],[""img/obj1.png"",0,""img/obj12.png""],[""img/obj4.png"",""img/obj3.png"",0]]","","","1,1,2,1,3,4,2,1,6","31","","","","","","","","","","",""
"vsl-grid-scene-snap","10","57134","0.0-5.0-0.0-5.0","","","[[0,""img/obj8.png"",0],[""img/obj11.png"",0,""img/obj12.png""],[""img/obj1.png"",""img/obj4.png"",""img/obj3.png""]]","","","1,2,2,2,3,4,2,1,6","55","","","","","","","","","","",""
"vsl-grid-scene-snap","11","60154","0.0-5.0-0.0-6.0","","","[[""img/obj4.png"",""img/obj3.png"",0],[""img/obj7.png"",""img/obj8.png"",0],[""img/obj10.png"",0,""img/obj12.png""]]","","","1,2,1,1,1,4,2,2,6","70","","","","","","","","","","",""
"vsl-grid-scene-snap","12","63166","0.0-5.0-0.0-7.0","","","[[""img/obj5.png"",""img/obj6.png"",0],[""img/obj11.png"",""img/obj8.png"",0],[""img/obj1.png"",0,""img/obj12.png""]]","","","1,2,2,1,1,3,2,2,6","69","","","","","","","","","","",""
"vsl-grid-scene-snap","13","66179","0.0-5.0-0.0-8.0","","","[[""img/obj11.png"",0,""img/obj9.png""],[""img/obj1.png"",""img/obj2.png"",0],[""img/obj5.png"",""img/obj6.png"",0]]","","","1,1,2,1,3,3,3,1,5","25","","","","","","","","","","",""
"vsl-grid-scene-snap","14","69190","0.0-5.0-0.0-9.0","","","[[""img/obj5.png"",""img/obj6.png"",0],[""img/obj7.png"",""img/obj8.png"",0],[""img/obj10.png"",0,""img/obj12.png""]]","","","1,2,1,1,1,3,2,2,6","68","","","","","","","","","","",""
"vsl-grid-scene-snap","15","72196","0.0-5.0-0.0-10.0","","","[[0,""img/obj9.png"",0],[""img/obj2.png"",0,""img/obj11.png""],[""img/obj4.png"",""img/obj3.png"",""img/obj1.png""]]","","","3,2,2,1,3,4,2,1,5","135","","","","","","","","","","",""
"vsl-grid-scene-snap","16","75211","0.0-5.0-0.0-11.0","","","[[""img/obj7.png"",0,""img/obj9.png""],[""img/obj10.png"",""img/obj2.png"",0],[0,""img/obj4.png"",""img/obj3.png""]]","","","1,1,1,2,3,4,3,1,5","14","","","","","","","","","","",""
"vsl-grid-scene-snap","17","78229","0.0-5.0-0.0-12.0","","","[[0,0,""img/obj9.png""],[0,""img/obj2.png"",""img/obj11.png""],[""img/obj5.png"",""img/obj6.png"",""img/obj1.png""]]","","","3,2,2,1,3,3,3,1,5","141","","","","","","","","","","",""
"vsl-grid-scene-snap","18","81243","0.0-5.0-0.0-13.0","","","[[0,0,""img/obj9.png""],[""img/obj7.png"",""img/obj2.png"",0],[""img/obj10.png"",""img/obj4.png"",""img/obj3.png""]]","","","1,2,1,2,3,4,3,1,5","50","","","","","","","","","","",""
"vsl-grid-scene-snap","19","84257","0.0-5.0-0.0-14.0","","","[[""img/obj4.png"",""img/obj3.png"",0],[0,""img/obj9.png"",""img/obj7.png""],[""img/obj2.png"",0,""img/obj10.png""]]","","","3,2,1,1,1,4,2,2,5","110","","","","","","","","","","",""
"vsl-grid-scene-snap","20","87266","0.0-5.0-0.0-15.0","","","[[0,""img/obj5.png"",""img/obj6.png""],[""img/obj7.png"",0,""img/obj9.png""],[""img/obj10.png"",""img/obj2.png"",0]]","","","1,2,1,2,1,3,3,2,5","36","","","","","","","","","","",""
"vsl-grid-scene-snap","21","90272","0.0-5.0-0.0-16.0","","","[[0,""img/obj5.png"",""img/obj6.png""],[""img/obj11.png"",0,""img/obj9.png""],[""img/obj1.png"",""img/obj2.png"",0]]","","","1,2,2,2,1,3,3,2,5","37","","","","","","","","","","",""
"vsl-grid-scene-snap","22","93286","0.0-5.0-0.0-17.0","","","[[""img/obj7.png"",""img/obj5.png"",""img/obj6.png""],[""img/obj10.png"",""img/obj9.png"",0],[""img/obj2.png"",0,0]]","","","1,1,1,2,1,3,2,2,5","4","","","","","","","","","","",""
"vsl-grid-scene-snap","23","96312","0.0-5.0-0.0-18.0","","","[[""img/obj11.png"",0,""img/obj9.png""],[""img/obj1.png"",""img/obj2.png"",0],[""img/obj4.png"",""img/obj3.png"",0]]","","","1,1,2,1,3,4,3,1,5","27","","","","","","","","","","",""
"vsl-grid-scene-snap","24","99317","0.0-5.0-0.0-19.0","","","[[""img/obj11.png"",0,0],[""img/obj1.png"",""img/obj9.png"",0],[""img/obj2.png"",""img/obj4.png"",""img/obj3.png""]]","","","1,1,2,2,3,4,2,2,5","19","","","","","","","","","","",""
"vsl-grid-scene-snap","25","102325","0.0-5.0-0.0-20.0","","","[[""img/obj7.png"",""img/obj8.png"",0],[""img/obj10.png"",0,""img/obj12.png""],[0,""img/obj5.png"",""img/obj6.png""]]","","","1,1,1,2,3,3,2,1,6","20","","","","","","","","","","",""
"vsl-grid-scene-snap","26","105345","0.0-5.0-0.0-21.0","","","[[""img/obj7.png"",""img/obj8.png"",0],[""img/obj10.png"",0,""img/obj12.png""],[0,""img/obj4.png"",""img/obj3.png""]]","","","1,1,1,2,3,4,2,1,6","22","","","","","","","","","","",""
"vsl-grid-scene-snap","27","108347","0.0-5.0-0.0-22.0","","","[[0,""img/obj9.png"",""img/obj11.png""],[""img/obj2.png"",0,""img/obj1.png""],[""img/obj4.png"",""img/obj3.png"",0]]","","","3,1,2,1,3,4,2,1,5","99","","","","","","","","","","",""
"vsl-grid-scene-snap","28","111362","0.0-5.0-0.0-23.0","","","[[""img/obj4.png"",""img/obj3.png"",""img/obj9.png""],[""img/obj11.png"",""img/obj2.png"",0],[""img/obj1.png"",0,0]]","","","1,2,2,1,1,4,3,1,5","67","","","","","","","","","","",""
"vsl-grid-scene-snap","29","114376","0.0-5.0-0.0-24.0","","","[[0,""img/obj9.png"",""img/obj11.png""],[""img/obj2.png"",0,""img/obj1.png""],[""img/obj5.png"",""img/obj6.png"",0]]","","","3,1,2,1,3,3,2,1,5","97","","","","","","","","","","",""
"vsl-grid-scene-snap","30","117394","0.0-5.0-0.0-25.0","","","[[""img/obj7.png"",0,0],[""img/obj10.png"",""img/obj9.png"",0],[""img/obj2.png"",""img/obj5.png"",""img/obj6.png""]]","","","1,1,1,2,3,3,2,2,5","16","","","","","","","","","","",""
"vsl-grid-scene-snap","31","120408","0.0-5.0-0.0-26.0","","","[[""img/obj8.png"",0,""img/obj7.png""],[0,""img/obj12.png"",""img/obj10.png""],[""img/obj5.png"",""img/obj6.png"",0]]","","","3,1,1,1,3,3,1,1,6","100","","","","","","","","","","",""
"vsl-grid-scene-snap","32","123422","0.0-5.0-0.0-27.0","","","[[""img/obj5.png"",""img/obj6.png"",""img/obj9.png""],[""img/obj7.png"",""img/obj2.png"",0],[""img/obj10.png"",0,0]]","","","1,2,1,1,1,3,3,1,5","64","","","","","","","","","","",""
"vsl-grid-scene-snap","33","126444","0.0-5.0-0.0-28.0","","","[[0,""img/obj9.png"",""img/obj7.png""],[""img/obj2.png"",0,""img/obj10.png""],[0,""img/obj5.png"",""img/obj6.png""]]","","","3,1,1,2,3,3,2,1,5","88","","","","","","","","","","",""
"vsl-grid-scene-snap","34","129474","0.0-5.0-0.0-29.0","","","[[""img/obj8.png"",0,""img/obj11.png""],[0,""img/obj12.png"",""img/obj1.png""],[0,""img/obj5.png"",""img/obj6.png""]]","","","3,1,2,2,3,3,1,1,6","93","","","","","","","","","","",""
"vsl-grid-scene-snap","35","132497","0.0-5.0-0.0-30.0","","","[[""img/obj11.png"",0,0],[""img/obj1.png"",""img/obj9.png"",0],[""img/obj2.png"",""img/obj5.png"",""img/obj6.png""]]","","","1,1,2,2,3,3,2,2,5","17","","","","","","","","","","",""
"vsl-grid-scene-snap","36","135524","0.0-5.0-0.0-31.0","","","[[""img/obj5.png"",""img/obj6.png"",""img/obj9.png""],[0,""img/obj2.png"",""img/obj7.png""],[0,0,""img/obj10.png""]]","","","3,2,1,1,1,3,3,1,5","116","","","","","","","","","","",""
"vsl-grid-scene-snap","37","138540","0.0-5.0-0.0-32.0","","","[[0,""img/obj4.png"",""img/obj3.png""],[""img/obj8.png"",0,""img/obj11.png""],[0,""img/obj12.png"",""img/obj1.png""]]","","","3,2,2,2,1,4,1,2,6","127","","","","","","","","","","",""
"vsl-grid-scene-snap","38","141561","0.0-5.0-0.0-33.0","","","[[0,""img/obj9.png"",""img/obj7.png""],[""img/obj2.png"",0,""img/obj10.png""],[""img/obj4.png"",""img/obj3.png"",0]]","","","3,1,1,1,3,4,2,1,5","98","","","","","","","","","","",""
"vsl-grid-scene-snap","39","144581","0.0-5.0-0.0-34.0","","","[[""img/obj7.png"",0,0],[""img/obj10.png"",""img/obj8.png"",0],[""img/obj5.png"",""img/obj6.png"",""img/obj12.png""]]","","","1,1,1,1,3,3,2,2,6","32","","","","","","","","","","",""
"vsl-grid-scene-snap","40","147588","0.0-5.0-0.0-35.0","","","[[""img/obj4.png"",""img/obj3.png"",0],[""img/obj7.png"",0,""img/obj9.png""],[""img/obj10.png"",""img/obj2.png"",0]]","","","1,2,1,1,1,4,3,2,5","62","","","","","","","","","","",""
"vsl-grid-scene-snap","41","150596","0.0-5.0-0.0-36.0","","","[[""img/obj7.png"",""img/obj5.png"",""img/obj6.png""],[""img/obj10.png"",""img/obj8.png"",0],[0,0,""img/obj12.png""]]","","","1,1,1,2,1,3,2,2,6","8","","","","","","","","","","",""
"vsl-grid-scene-snap","42","153616","0.0-5.0-0.0-37.0","","","[[""img/obj5.png"",""img/obj6.png"",0],[""img/obj7.png"",0,""img/obj9.png""],[""img/obj10.png"",""img/obj2.png"",0]]","","","1,2,1,1,1,3,3,2,5","60","","","","","","","","","","",""
"vsl-grid-scene-snap","43","156644","0.0-5.0-0.0-38.0","","","[[""img/obj4.png"",""img/obj3.png"",""img/obj11.png""],[0,""img/obj8.png"",""img/obj1.png""],[0,0,""img/obj12.png""]]","","","3,1,2,1,1,4,2,2,6","83","","","","","","","","","","",""
"vsl-grid-scene-snap","44","159657","0.0-5.0-0.0-39.0","","","[[0,0,""img/obj9.png""],[0,""img/obj2.png"",""img/obj11.png""],[""img/obj4.png"",""img/obj3.png"",""img/obj1.png""]]","","","3,2,2,1,3,4,3,1,5","143","","","","","","","","","","",""
"vsl-grid-scene-snap","45","162679","0.0-5.0-0.0-40.0","","","[[""img/obj11.png"",0,""img/obj9.png""],[""img/obj1.png"",""img/obj2.png"",0],[0,""img/obj4.png"",""img/obj3.png""]]","","","1,1,2,2,3,4,3,1,5","15","","","","","","","","","","",""
"vsl-grid-scene-snap","46","165693","0.0-5.0-0.0-41.0","","","[[""img/obj11.png"",0,0],[""img/obj1.png"",""img/obj8.png"",0],[""img/obj5.png"",""img/obj6.png"",""img/obj12.png""]]","","","1,1,2,1,3,3,2,2,6","33","","","","","","","","","","",""
"vsl-grid-scene-snap","47","168701","0.0-5.0-0.0-42.0","","","[[""img/obj11.png"",""img/obj5.png"",""img/obj6.png""],[""img/obj1.png"",""img/obj9.png"",0],[""img/obj2.png"",0,0]]","","","1,1,2,2,1,3,2,2,5","5","","","","","","","","","","",""
"vsl-grid-scene-snap","48","171708","0.0-5.0-0.0-43.0","","","[[0,""img/obj8.png"",0],[""img/obj11.png"",0,""img/obj12.png""],[""img/obj1.png"",""img/obj5.png"",""img/obj6.png""]]","","","1,2,2,2,3,3,2,1,6","53","","","","","","","","","","",""
"vsl-grid-scene-snap","49","174718","0.0-5.0-0.0-44.0","","","[[0,""img/obj5.png"",""img/obj6.png""],[""img/obj8.png"",0,""img/obj7.png""],[0,""img/obj12.png"",""img/obj10.png""]]","","","3,2,1,2,1,3,1,2,6","124","","","","","","","","","","",""
"vsl-grid-scene-snap","50","177722","0.0-5.0-0.0-45.0","","","[[""img/obj5.png"",""img/obj6.png"",0],[""img/obj8.png"",0,""img/obj7.png""],[0,""img/obj12.png"",""img/obj10.png""]]","","","3,2,1,1,1,3,1,2,6","112","","","","","","","","","","",""
"vsl-grid-scene-snap","51","180727","0.0-5.0-0.0-46.0","","","[[""img/obj4.png"",""img/obj3.png"",""img/obj7.png""],[""img/obj8.png"",0,""img/obj10.png""],[0,""img/obj12.png"",0]]","","","3,1,1,1,1,4,1,2,6","78","","","","","","","","","","",""
"vsl-grid-scene-snap","52","183753","0.0-5.0-0.0-47.0","","","[[0,""img/obj5.png"",""img/obj6.png""],[""img/obj8.png"",0,""img/obj11.png""],[0,""img/obj12.png"",""img/obj1.png""]]","","","3,2,2,2,1,3,1,2,6","125","","","","","","","","","","",""
"vsl-grid-attention-check","53","187772","0.0-5.0-1.0-0.0-0.0","","null","[[0,""img/square.png"",""img/square.png""],[""img/square.png"",""img/attention.png"",0],[0,""img/square.png"",""img/square.png""]]","","","","","null","","","","","","","","","",""
"vsl-grid-attention-check","54","190775","0.0-5.0-1.0-0.1-0.1","","null","[[0,""img/square.png"",""img/square.png""],[""img/square.png"",""img/attention.png"",""img/square.png""],[0,0,""img/square.png""]]","","","","","null","","","","","","","","","",""
"vsl-grid-attention-check","55","193785","0.0-5.0-1.0-0.2-0.2","","null","[[""img/square.png"",0,0],[""img/square.png"",""img/attention.png"",""img/square.png""],[""img/square.png"",0,""img/square.png""]]","","","","","null","","","","","","","","","",""
"vsl-grid-attention-check","56","196787","0.0-5.0-1.0-0.3-0.3","","null","[[""img/square.png"",""img/square.png"",""img/square.png""],[""img/square.png"",""img/attention.png"",0],[""img/square.png"",0,0]]","","","","","null","","","","","","","","","",""
"vsl-grid-attention-check","57","199796","0.0-5.0-1.0-0.4-0.4","","null","[[""img/square.png"",""img/square.png"",0],[""img/square.png"",""img/attention.png"",0],[""img/square.png"",0,""img/square.png""]]","","","","","null","","","","","","","","","",""
"vsl-grid-attention-check","58","202807","0.0-5.0-1.0-0.5-0.5","","null","[[""img/square.png"",""img/square.png"",0],[0,""img/attention.png"",""img/square.png""],[0,""img/square.png"",""img/square.png""]]","","","","","null","","","","","","","","","",""
"vsl-grid-attention-check","59","205818","0.0-5.0-1.0-0.6-0.6","","null","[[""img/square.png"",""img/square.png"",""img/square.png""],[""img/square.png"",""img/attention.png"",0],[0,""img/square.png"",0]]","","","","","null","","","","","","","","","",""
"vsl-grid-attention-check","60","208825","0.0-5.0-1.0-0.7-0.7","","null","[[0,""img/square.png"",""img/square.png""],[0,""img/attention.png"",""img/square.png""],[0,""img/square.png"",""img/square.png""]]","","","","","null","","","","","","","","","",""
"vsl-grid-attention-check","61","211833","0.0-5.0-1.0-0.8-0.8","","null","[[0,""img/square.png"",0],[0,""img/attention.png"",""img/square.png""],[""img/square.png"",""img/square.png"",""img/square.png""]]","","","","","null","","","","","","","","","",""
"vsl-grid-attention-check","62","214838","0.0-5.0-1.0-0.9-0.9","","null","[[0,""img/square.png"",""img/square.png""],[""img/square.png"",""img/attention.png"",0],[""img/square.png"",0,""img/square.png""]]","","","","","null","","","","","","","","","",""
"vsl-grid-attention-check","63","217843","0.0-5.0-1.0-0.10-0.10","","null","[[0,""img/square.png"",0],[""img/square.png"",""img/attention.png"",0],[""img/square.png"",""img/square.png"",""img/square.png""]]","","","","","null","","","","","","","","","",""
"vsl-grid-attention-check","64","220856","0.0-5.0-1.0-0.11-0.11","","null","[[0,""img/square.png"",""img/square.png""],[0,""img/attention.png"",""img/square.png""],[0,""img/square.png"",""img/square.png""]]","","","","","null","","","","","","","","","",""
"vsl-grid-attention-check","65","223859","0.0-5.0-1.0-0.12-0.12","","null","[[""img/square.png"",""img/square.png"",""img/square.png""],[""img/square.png"",""img/attention.png"",0],[""img/square.png"",0,0]]","","","","","null","","","","","","","","","",""
"vsl-grid-attention-check","66","226872","0.0-5.0-1.0-0.13-0.13","","null","[[""img/square.png"",0,""img/square.png""],[0,""img/attention.png"",""img/square.png""],[""img/square.png"",0,""img/square.png""]]","","","","","null","","","","","","","","","",""
"vsl-grid-attention-check","67","229883","0.0-5.0-1.0-0.14-0.14","","null","[[0,0,0],[""img/square.png"",""img/attention.png"",""img/square.png""],[""img/square.png"",""img/square.png"",""img/square.png""]]","","","","","null","","","","","","","","","",""
"vsl-grid-attention-check","68","232899","0.0-5.0-1.0-0.15-0.15","","null","[[0,""img/square.png"",0],[0,""img/attention.png"",""img/square.png""],[""img/square.png"",""img/square.png"",""img/square.png""]]","","","","","null","","","","","","","","","",""
"vsl-grid-attention-check","69","235902","0.0-5.0-1.0-0.16-0.16","","null","[[""img/square.png"",""img/square.png"",0],[""img/square.png"",""img/attention.png"",""img/square.png""],[0,""img/square.png"",0]]","","","","","null","","","","","","","","","",""
"vsl-grid-attention-check","70","237599","0.0-5.0-1.0-0.17-0.17","","1694.4000000953674","[[""img/square.png"",""img/square.png"",0],[""img/square.png"",""img/attention.png"",""img/square.png""],[0,""img/square.png"",0]]","","","","","32","","","","","","","","","",""
"html-keyboard-response","71","238610","0.0-5.0-1.0-1.0","","null"," ","","","","","null","","","","","","","","","",""
"vsl-grid-scene-snap","72","240616","0.0-5.0-2.0-0.0","","","[[""img/obj11.png"",""img/obj8.png"",0],[""img/obj1.png"",0,""img/obj12.png""],[0,""img/obj4.png"",""img/obj3.png""]]","","","1,1,2,2,3,4,2,1,6","23","","","","","","","","","","",""
"vsl-grid-scene-snap","73","243619","0.0-5.0-2.0-1.0","","","[[""img/obj8.png"",""img/obj5.png"",""img/obj6.png""],[0,""img/obj12.png"",""img/obj7.png""],[0,0,""img/obj10.png""]]","","","3,2,1,2,1,3,1,1,6","128","","","","","","","","","","",""
"vsl-grid-scene-snap","74","246638","0.0-5.0-2.0-2.0","","","[[""img/obj5.png"",""img/obj6.png"",""img/obj7.png""],[0,""img/obj9.png"",""img/obj10.png""],[""img/obj2.png"",0,0]]","","","3,1,1,1,1,3,2,2,5","72","","","","","","","","","","",""
"vsl-grid-scene-snap","75","249647","0.0-5.0-2.0-3.0","","","[[""img/obj7.png"",""img/obj8.png"",0],[""img/obj10.png"",0,""img/obj12.png""],[""img/obj5.png"",""img/obj6.png"",0]]","","","1,1,1,1,3,3,2,1,6","28","","","","","","","","","","",""
"vsl-grid-scene-snap","76","252662","0.0-5.0-2.0-4.0","","","[[""img/obj4.png"",""img/obj3.png"",""img/obj9.png""],[0,""img/obj2.png"",""img/obj7.png""],[0,0,""img/obj10.png""]]","","","3,2,1,1,1,4,3,1,5","118","","","","","","","","","","",""
"vsl-grid-scene-snap","77","255681","0.0-5.0-2.0-5.0","","","[[""img/obj5.png"",""img/obj6.png"",""img/obj11.png""],[0,""img/obj9.png"",""img/obj1.png""],[""img/obj2.png"",0,0]]","","","3,1,2,1,1,3,2,2,5","73","","","","","","","","","","",""
"vsl-grid-scene-snap","78","258697","0.0-5.0-2.0-6.0","","","[[""img/obj8.png"",0,0],[""img/obj11.png"",""img/obj12.png"",0],[""img/obj1.png"",""img/obj5.png"",""img/obj6.png""]]","","","1,2,2,2,3,3,1,1,6","57","","","","","","","","","","",""
"vsl-grid-scene-snap","79","261720","0.0-5.0-2.0-7.0","","","[[0,""img/obj9.png"",0],[""img/obj2.png"",0,""img/obj7.png""],[""img/obj4.png"",""img/obj3.png"",""img/obj10.png""]]","","","3,2,1,1,3,4,2,1,5","134","","","","","","","","","","",""
"vsl-grid-scene-snap","80","264741","0.0-5.0-2.0-8.0","","","[[""img/obj5.png"",""img/obj6.png"",""img/obj9.png""],[""img/obj11.png"",""img/obj2.png"",0],[""img/obj1.png"",0,0]]","","","1,2,2,1,1,3,3,1,5","65","","","","","","","","","","",""
"vsl-grid-scene-snap","81","267758","0.0-5.0-2.0-9.0","","","[[""img/obj7.png"",""img/obj5.png"",""img/obj6.png""],[""img/obj10.png"",0,""img/obj9.png""],[0,""img/obj2.png"",0]]","","","1,1,1,2,1,3,3,2,5","0","","","","","","","","","","",""
"vsl-grid-scene-snap","82","270779","0.0-5.0-2.0-10.0","","","[[""img/obj8.png"",""img/obj5.png"",""img/obj6.png""],[""img/obj11.png"",""img/obj12.png"",0],[""img/obj1.png"",0,0]]","","","1,2,2,2,1,3,1,1,6","41","","","","","","","","","","",""
"vsl-grid-scene-snap","83","273795","0.0-5.0-2.0-11.0","","","[[""img/obj7.png"",""img/obj4.png"",""img/obj3.png""],[""img/obj10.png"",""img/obj8.png"",0],[0,0,""img/obj12.png""]]","","","1,1,1,2,1,4,2,2,6","10","","","","","","","","","","",""
"vsl-grid-scene-snap","84","276818","0.0-5.0-2.0-12.0","","","[[""img/obj8.png"",0,0],[0,""img/obj12.png"",""img/obj11.png""],[""img/obj5.png"",""img/obj6.png"",""img/obj1.png""]]","","","3,2,2,1,3,3,1,1,6","137","","","","","","","","","","",""
"vsl-grid-scene-snap","85","279825","0.0-5.0-2.0-13.0","","","[[""img/obj7.png"",0,""img/obj9.png""],[""img/obj10.png"",""img/obj2.png"",0],[""img/obj4.png"",""img/obj3.png"",0]]","","","1,1,1,1,3,4,3,1,5","26","","","","","","","","","","",""
"vsl-grid-scene-snap","86","282839","0.0-5.0-2.0-14.0","","","[[""img/obj7.png"",""img/obj4.png"",""img/obj3.png""],[""img/obj10.png"",0,""img/obj9.png""],[0,""img/obj2.png"",0]]","","","1,1,1,2,1,4,3,2,5","2","","","","","","","","","","",""
"vsl-grid-scene-snap","87","285861","0.0-5.0-2.0-15.0","","","[[0,0,""img/obj11.png""],[0,""img/obj8.png"",""img/obj1.png""],[""img/obj5.png"",""img/obj6.png"",""img/obj12.png""]]","","","3,1,2,1,3,3,2,2,6","105","","","","","","","","","","",""
"vsl-grid-scene-snap","88","288866","0.0-5.0-2.0-16.0","","","[[""img/obj5.png"",""img/obj6.png"",""img/obj7.png""],[0,""img/obj8.png"",""img/obj10.png""],[0,0,""img/obj12.png""]]","","","3,1,1,1,1,3,2,2,6","80","","","","","","","","","","",""
"vsl-grid-scene-snap","89","291872","0.0-5.0-2.0-17.0","","","[[""img/obj4.png"",""img/obj3.png"",0],[0,""img/obj9.png"",""img/obj11.png""],[""img/obj2.png"",0,""img/obj1.png""]]","","","3,2,2,1,1,4,2,2,5","111","","","","","","","","","","",""
"vsl-grid-scene-snap","90","294897","0.0-5.0-2.0-18.0","","","[[0,0,""img/obj11.png""],[0,""img/obj8.png"",""img/obj1.png""],[""img/obj4.png"",""img/obj3.png"",""img/obj12.png""]]","","","3,1,2,1,3,4,2,2,6","107","","","","","","","","","","",""
"vsl-grid-scene-snap","91","297900","0.0-5.0-2.0-19.0","","","[[""img/obj8.png"",0,0],[0,""img/obj12.png"",""img/obj7.png""],[""img/obj5.png"",""img/obj6.png"",""img/obj10.png""]]","","","3,2,1,1,3,3,1,1,6","136","","","","","","","","","","",""
"vsl-grid-scene-snap","92","300917","0.0-5.0-2.0-20.0","","","[[""img/obj11.png"",""img/obj8.png"",0],[""img/obj1.png"",0,""img/obj12.png""],[0,""img/obj5.png"",""img/obj6.png""]]","","","1,1,2,2,3,3,2,1,6","21","","","","","","","","","","",""
"vsl-grid-scene-snap","93","303926","0.0-5.0-2.0-21.0","","","[[0,""img/obj9.png"",""img/obj11.png""],[""img/obj2.png"",0,""img/obj1.png""],[0,""img/obj5.png"",""img/obj6.png""]]","","","3,1,2,2,3,3,2,1,5","89","","","","","","","","","","",""
"vsl-grid-scene-snap","94","306945","0.0-5.0-2.0-22.0","","","[[""img/obj7.png"",0,0],[""img/obj10.png"",""img/obj9.png"",0],[""img/obj2.png"",""img/obj4.png"",""img/obj3.png""]]","","","1,1,1,2,3,4,2,2,5","18","","","","","","","","","","",""
"vsl-grid-scene-snap","95","309956","0.0-5.0-2.0-23.0","","","[[0,""img/obj5.png"",""img/obj6.png""],[""img/obj7.png"",""img/obj8.png"",0],[""img/obj10.png"",0,""img/obj12.png""]]","","","1,2,1,2,1,3,2,2,6","44","","","","","","","","","","",""
"vsl-grid-scene-snap","96","312969","0.0-5.0-2.0-24.0","","","[[""img/obj4.png"",""img/obj3.png"",""img/obj7.png""],[0,""img/obj8.png"",""img/obj10.png""],[0,0,""img/obj12.png""]]","","","3,1,1,1,1,4,2,2,6","82","","","","","","","","","","",""
"vsl-grid-scene-snap","97","315987","0.0-5.0-2.0-25.0","","","[[0,""img/obj4.png"",""img/obj3.png""],[0,""img/obj9.png"",""img/obj7.png""],[""img/obj2.png"",0,""img/obj10.png""]]","","","3,2,1,2,1,4,2,2,5","122","","","","","","","","","","",""
"vsl-grid-scene-snap","98","319010","0.0-5.0-2.0-26.0","","","[[""img/obj8.png"",0,0],[0,""img/obj12.png"",""img/obj11.png""],[""img/obj4.png"",""img/obj3.png"",""img/obj1.png""]]","","","3,2,2,1,3,4,1,1,6","139","","","","","","","","","","",""
"vsl-grid-scene-snap","99","322012","0.0-5.0-2.0-27.0","","","[[""img/obj11.png"",""img/obj8.png"",0],[""img/obj1.png"",0,""img/obj12.png""],[""img/obj5.png"",""img/obj6.png"",0]]","","","1,1,2,1,3,3,2,1,6","29","","","","","","","","","","",""
"vsl-grid-scene-snap","100","325027","0.0-5.0-2.0-28.0","","","[[""img/obj4.png"",""img/obj3.png"",""img/obj9.png""],[0,""img/obj2.png"",""img/obj11.png""],[0,0,""img/obj1.png""]]","","","3,2,2,1,1,4,3,1,5","119","","","","","","","","","","",""
"vsl-grid-scene-snap","101","328052","0.0-5.0-2.0-29.0","","","[[""img/obj11.png"",""img/obj4.png"",""img/obj3.png""],[""img/obj1.png"",""img/obj9.png"",0],[""img/obj2.png"",0,0]]","","","1,1,2,2,1,4,2,2,5","7","","","","","","","","","","",""
"vsl-grid-scene-snap","102","331068","0.0-5.0-2.0-30.0","","","[[""img/obj4.png"",""img/obj3.png"",""img/obj7.png""],[0,""img/obj9.png"",""img/obj10.png""],[""img/obj2.png"",0,0]]","","","3,1,1,1,1,4,2,2,5","74","","","","","","","","","","",""
"vsl-grid-scene-snap","103","334079","0.0-5.0-2.0-31.0","","","[[""img/obj5.png"",""img/obj6.png"",0],[""img/obj8.png"",0,""img/obj11.png""],[0,""img/obj12.png"",""img/obj1.png""]]","","","3,2,2,1,1,3,1,2,6","113","","","","","","","","","","",""
"vsl-grid-scene-snap","104","337100","0.0-5.0-2.0-32.0","","","[[0,0,""img/obj9.png""],[0,""img/obj2.png"",""img/obj7.png""],[""img/obj5.png"",""img/obj6.png"",""img/obj10.png""]]","","","3,2,1,1,3,3,3,1,5","140","","","","","","","","","","",""
"vsl-grid-scene-snap","105","340105","0.0-5.0-2.0-33.0","","","[[""img/obj11.png"",""img/obj5.png"",""img/obj6.png""],[""img/obj1.png"",""img/obj8.png"",0],[0,0,""img/obj12.png""]]","","","1,1,2,2,1,3,2,2,6","9","","","","","","","","","","",""
"vsl-grid-scene-snap","106","343124","0.0-5.0-2.0-34.0","","","[[0,""img/obj9.png"",""img/obj7.png""],[""img/obj2.png"",0,""img/obj10.png""],[""img/obj5.png"",""img/obj6.png"",0]]","","","3,1,1,1,3,3,2,1,5","96","","","","","","","","","","",""
"vsl-grid-scene-snap","107","346129","0.0-5.0-2.0-35.0","","","[[""img/obj8.png"",0,""img/obj7.png""],[0,""img/obj12.png"",""img/obj10.png""],[0,""img/obj5.png"",""img/obj6.png""]]","","","3,1,1,2,3,3,1,1,6","92","","","","","","","","","","",""
"vsl-grid-scene-snap","108","349140","0.0-5.0-2.0-36.0","","","[[""img/obj8.png"",0,""img/obj11.png""],[0,""img/obj12.png"",""img/obj1.png""],[0,""img/obj4.png"",""img/obj3.png""]]","","","3,1,2,2,3,4,1,1,6","95","","","","","","","","","","",""
"vsl-grid-scene-snap","109","352149","0.0-5.0-2.0-37.0","","","[[""img/obj5.png"",""img/obj6.png"",""img/obj7.png""],[""img/obj8.png"",0,""img/obj10.png""],[0,""img/obj12.png"",0]]","","","3,1,1,1,1,3,1,2,6","76","","","","","","","","","","",""
"vsl-grid-scene-snap","110","355176","0.0-5.0-2.0-38.0","","","[[0,""img/obj5.png"",""img/obj6.png""],[0,""img/obj9.png"",""img/obj7.png""],[""img/obj2.png"",0,""img/obj10.png""]]","","","3,2,1,2,1,3,2,2,5","120","","","","","","","","","","",""
"vsl-grid-scene-snap","111","358189","0.0-5.0-2.0-39.0","","","[[0,0,""img/obj9.png""],[0,""img/obj2.png"",""img/obj7.png""],[""img/obj4.png"",""img/obj3.png"",""img/obj10.png""]]","","","3,2,1,1,3,4,3,1,5","142","","","","","","","","","","",""
"vsl-grid-scene-snap","112","361215","0.0-5.0-2.0-40.0","","","[[0,""img/obj4.png"",""img/obj3.png""],[""img/obj11.png"",""img/obj8.png"",0],[""img/obj1.png"",0,""img/obj12.png""]]","","","1,2,2,2,1,4,2,2,6","47","","","","","","","","","","",""
"vsl-grid-scene-snap","113","364244","0.0-5.0-2.0-41.0","","","[[""img/obj11.png"",""img/obj4.png"",""img/obj3.png""],[""img/obj1.png"",""img/obj8.png"",0],[0,0,""img/obj12.png""]]","","","1,1,2,2,1,4,2,2,6","11","","","","","","","","","","",""
"vsl-grid-scene-snap","114","367260","0.0-5.0-2.0-42.0","","","[[""img/obj7.png"",0,0],[""img/obj10.png"",""img/obj8.png"",0],[""img/obj4.png"",""img/obj3.png"",""img/obj12.png""]]","","","1,1,1,1,3,4,2,2,6","34","","","","","","","","","","",""
"vsl-grid-scene-snap","115","370281","0.0-5.0-2.0-43.0","","","[[0,""img/obj4.png"",""img/obj3.png""],[""img/obj8.png"",0,""img/obj7.png""],[0,""img/obj12.png"",""img/obj10.png""]]","","","3,2,1,2,1,4,1,2,6","126","","","","","","","","","","",""
"vsl-grid-scene-snap","116","373305","0.0-5.0-2.0-44.0","","","[[0,0,""img/obj9.png""],[""img/obj11.png"",""img/obj2.png"",0],[""img/obj1.png"",""img/obj4.png"",""img/obj3.png""]]","","","1,2,2,2,3,4,3,1,5","51","","","","","","","","","","",""
"vsl-grid-scene-snap","117","376323","0.0-5.0-2.0-45.0","","","[[""img/obj7.png"",0,""img/obj9.png""],[""img/obj10.png"",""img/obj2.png"",0],[0,""img/obj5.png"",""img/obj6.png""]]","","","1,1,1,2,3,3,3,1,5","12","","","","","","","","","","",""
"vsl-grid-scene-snap","118","379328","0.0-5.0-2.0-46.0","","","[[""img/obj8.png"",0,""img/obj7.png""],[0,""img/obj12.png"",""img/obj10.png""],[""img/obj4.png"",""img/obj3.png"",0]]","","","3,1,1,1,3,4,1,1,6","102","","","","","","","","","","",""
"vsl-grid-scene-snap","119","382331","0.0-5.0-2.0-47.0","","","[[""img/obj11.png"",0,""img/obj9.png""],[""img/obj1.png"",""img/obj2.png"",0],[0,""img/obj5.png"",""img/obj6.png""]]","","","1,1,2,2,3,3,3,1,5","13","","","","","","","","","","",""
"vsl-grid-attention-check","120","386343","0.0-5.0-3.0-0.0-0.0","","null","[[""img/square.png"",""img/square.png"",""img/square.png""],[""img/square.png"",""img/attention.png"",""img/square.png""],[0,0,0]]","","","","","null","","","","","","","","","",""
"vsl-grid-attention-check","121","388591","0.0-5.0-3.0-0.1-0.1","","2245.7999999523163","[[0,0,""img/square.png""],[""img/square.png"",""img/attention.png"",""img/square.png""],[""img/square.png"",0,""img/square.png""]]","","","","","32","","","","","","","","","",""
"html-keyboard-response","122","389598","0.0-5.0-3.0-1.0","","null"," ","","","","","null","","","","","","","","","",""
"vsl-grid-scene-snap","123","391604","0.0-5.0-4.0-0.0","","","[[0,""img/obj5.png"",""img/obj6.png""],[0,""img/obj9.png"",""img/obj11.png""],[""img/obj2.png"",0,""img/obj1.png""]]","","","3,2,2,2,1,3,2,2,5","121","","","","","","","","","","",""
"vsl-grid-scene-snap","124","394626","0.0-5.0-4.0-1.0","","","[[""img/obj7.png"",""img/obj4.png"",""img/obj3.png""],[""img/obj10.png"",""img/obj9.png"",0],[""img/obj2.png"",0,0]]","","","1,1,1,2,1,4,2,2,5","6","","","","","","","","","","",""
"vsl-grid-scene-snap","125","397645","0.0-5.0-4.0-2.0","","","[[0,""img/obj8.png"",0],[""img/obj7.png"",0,""img/obj12.png""],[""img/obj10.png"",""img/obj4.png"",""img/obj3.png""]]","","","1,2,1,2,3,4,2,1,6","54","","","","","","","","","","",""
"vsl-grid-scene-snap","126","400665","0.0-5.0-4.0-3.0","","","[[""img/obj5.png"",""img/obj6.png"",""img/obj9.png""],[0,""img/obj2.png"",""img/obj11.png""],[0,0,""img/obj1.png""]]","","","3,2,2,1,1,3,3,1,5","117","","","","","","","","","","",""
"vsl-grid-scene-snap","127","403696","0.0-5.0-4.0-4.0","","","[[0,""img/obj9.png"",0],[""img/obj2.png"",0,""img/obj7.png""],[""img/obj5.png"",""img/obj6.png"",""img/obj10.png""]]","","","3,2,1,1,3,3,2,1,5","132","","","","","","","","","","",""
"vsl-grid-scene-snap","128","406712","0.0-5.0-4.0-5.0","","","[[""img/obj4.png"",""img/obj3.png"",0],[""img/obj8.png"",0,""img/obj11.png""],[0,""img/obj12.png"",""img/obj1.png""]]","","","3,2,2,1,1,4,1,2,6","115","","","","","","","","","","",""
"vsl-grid-scene-snap","129","409726","0.0-5.0-4.0-6.0","","","[[0,0,""img/obj9.png""],[""img/obj7.png"",""img/obj2.png"",0],[""img/obj10.png"",""img/obj5.png"",""img/obj6.png""]]","","","1,2,1,2,3,3,3,1,5","48","","","","","","","","","","",""
"vsl-grid-scene-snap","130","412736","0.0-5.0-4.0-7.0","","","[[0,""img/obj5.png"",""img/obj6.png""],[""img/obj11.png"",""img/obj8.png"",0],[""img/obj1.png"",0,""img/obj12.png""]]","","","1,2,2,2,1,3,2,2,6","45","","","","","","","","","","",""
"vsl-grid-scene-snap","131","415751","0.0-5.0-4.0-8.0","","","[[""img/obj4.png"",""img/obj3.png"",0],[""img/obj8.png"",0,""img/obj7.png""],[0,""img/obj12.png"",""img/obj10.png""]]","","","3,2,1,1,1,4,1,2,6","114","","","","","","","","","","",""
"vsl-grid-scene-snap","132","418761","0.0-5.0-4.0-9.0","","","[[""img/obj8.png"",0,""img/obj7.png""],[0,""img/obj12.png"",""img/obj10.png""],[0,""img/obj4.png"",""img/obj3.png""]]","","","3,1,1,2,3,4,1,1,6","94","","","","","","","","","","",""
"vsl-grid-scene-snap","133","421771","0.0-5.0-4.0-10.0","","","[[""img/obj4.png"",""img/obj3.png"",""img/obj9.png""],[""img/obj7.png"",""img/obj2.png"",0],[""img/obj10.png"",0,0]]","","","1,2,1,1,1,4,3,1,5","66","","","","","","","","","","",""
"vsl-grid-scene-snap","134","424777","0.0-5.0-4.0-11.0","","","[[0,0,""img/obj7.png""],[0,""img/obj8.png"",""img/obj10.png""],[""img/obj5.png"",""img/obj6.png"",""img/obj12.png""]]","","","3,1,1,1,3,3,2,2,6","104","","","","","","","","","","",""
"vsl-grid-scene-snap","135","427792","0.0-5.0-4.0-12.0","","","[[0,""img/obj4.png"",""img/obj3.png""],[""img/obj7.png"",0,""img/obj9.png""],[""img/obj10.png"",""img/obj2.png"",0]]","","","1,2,1,2,1,4,3,2,5","38","","","","","","","","","","",""
"vsl-grid-scene-snap","136","430810","0.0-5.0-4.0-13.0","","","[[""img/obj8.png"",""img/obj5.png"",""img/obj6.png""],[""img/obj7.png"",""img/obj12.png"",0],[""img/obj10.png"",0,0]]","","","1,2,1,2,1,3,1,1,6","40","","","","","","","","","","",""
"vsl-grid-scene-snap","137","433823","0.0-5.0-4.0-14.0","","","[[""img/obj8.png"",0,0],[0,""img/obj12.png"",""img/obj7.png""],[""img/obj4.png"",""img/obj3.png"",""img/obj10.png""]]","","","3,2,1,1,3,4,1,1,6","138","","","","","","","","","","",""
"vsl-grid-scene-snap","138","436836","0.0-5.0-4.0-15.0","","","[[""img/obj8.png"",0,0],[""img/obj7.png"",""img/obj12.png"",0],[""img/obj10.png"",""img/obj4.png"",""img/obj3.png""]]","","","1,2,1,2,3,4,1,1,6","58","","","","","","","","","","",""
"vsl-grid-scene-snap","139","439842","0.0-5.0-4.0-16.0","","","[[""img/obj8.png"",0,""img/obj11.png""],[0,""img/obj12.png"",""img/obj1.png""],[""img/obj5.png"",""img/obj6.png"",0]]","","","3,1,2,1,3,3,1,1,6","101","","","","","","","","","","",""
"vsl-grid-scene-snap","140","442856","0.0-5.0-4.0-17.0","","","[[""img/obj4.png"",""img/obj3.png"",""img/obj11.png""],[0,""img/obj9.png"",""img/obj1.png""],[""img/obj2.png"",0,0]]","","","3,1,2,1,1,4,2,2,5","75","","","","","","","","","","",""
"vsl-grid-scene-snap","141","445867","0.0-5.0-4.0-18.0","","","[[0,0,""img/obj7.png""],[0,""img/obj9.png"",""img/obj10.png""],[""img/obj2.png"",""img/obj4.png"",""img/obj3.png""]]","","","3,1,1,2,3,4,2,2,5","86","","","","","","","","","","",""
"vsl-grid-scene-snap","142","448881","0.0-5.0-4.0-19.0","","","[[""img/obj8.png"",0,0],[""img/obj11.png"",""img/obj12.png"",0],[""img/obj1.png"",""img/obj4.png"",""img/obj3.png""]]","","","1,2,2,2,3,4,1,1,6","59","","","","","","","","","","",""
"vsl-grid-scene-snap","143","451906","0.0-5.0-4.0-20.0","","","[[""img/obj8.png"",""img/obj4.png"",""img/obj3.png""],[0,""img/obj12.png"",""img/obj7.png""],[0,0,""img/obj10.png""]]","","","3,2,1,2,1,4,1,1,6","130","","","","","","","","","","",""
"vsl-grid-scene-snap","144","454923","0.0-5.0-4.0-21.0","","","[[0,0,""img/obj7.png""],[0,""img/obj8.png"",""img/obj10.png""],[""img/obj4.png"",""img/obj3.png"",""img/obj12.png""]]","","","3,1,1,1,3,4,2,2,6","106","","","","","","","","","","",""
"vsl-grid-scene-snap","145","457935","0.0-5.0-4.0-22.0","","","[[""img/obj8.png"",""img/obj4.png"",""img/obj3.png""],[""img/obj7.png"",""img/obj12.png"",0],[""img/obj10.png"",0,0]]","","","1,2,1,2,1,4,1,1,6","42","","","","","","","","","","",""
"vsl-grid-scene-snap","146","460960","0.0-5.0-4.0-23.0","","","[[""img/obj7.png"",0,""img/obj9.png""],[""img/obj10.png"",""img/obj2.png"",0],[""img/obj5.png"",""img/obj6.png"",0]]","","","1,1,1,1,3,3,3,1,5","24","","","","","","","","","","",""
"vsl-grid-scene-snap","147","463973","0.0-5.0-4.0-24.0","","","[[""img/obj4.png"",""img/obj3.png"",0],[""img/obj11.png"",""img/obj8.png"",0],[""img/obj1.png"",0,""img/obj12.png""]]","","","1,2,2,1,1,4,2,2,6","71","","","","","","","","","","",""
"vsl-grid-scene-snap","148","466990","0.0-5.0-4.0-25.0","","","[[""img/obj5.png"",""img/obj6.png"",0],[0,""img/obj9.png"",""img/obj11.png""],[""img/obj2.png"",0,""img/obj1.png""]]","","","3,2,2,1,1,3,2,2,5","109","","","","","","","","","","",""
"vsl-grid-scene-snap","149","470005","0.0-5.0-4.0-26.0","","","[[""img/obj4.png"",""img/obj3.png"",""img/obj11.png""],[""img/obj8.png"",0,""img/obj1.png""],[0,""img/obj12.png"",0]]","","","3,1,2,1,1,4,1,2,6","79","","","","","","","","","","",""
"vsl-grid-scene-snap","150","473029","0.0-5.0-4.0-27.0","","","[[0,""img/obj4.png"",""img/obj3.png""],[""img/obj11.png"",0,""img/obj9.png""],[""img/obj1.png"",""img/obj2.png"",0]]","","","1,2,2,2,1,4,3,2,5","39","","","","","","","","","","",""
"vsl-grid-scene-snap","151","476041","0.0-5.0-4.0-28.0","","","[[""img/obj5.png"",""img/obj6.png"",0],[""img/obj11.png"",0,""img/obj9.png""],[""img/obj1.png"",""img/obj2.png"",0]]","","","1,2,2,1,1,3,3,2,5","61","","","","","","","","","","",""
"vsl-grid-scene-snap","152","479056","0.0-5.0-4.0-29.0","","","[[0,""img/obj9.png"",0],[""img/obj2.png"",0,""img/obj11.png""],[""img/obj5.png"",""img/obj6.png"",""img/obj1.png""]]","","","3,2,2,1,3,3,2,1,5","133","","","","","","","","","","",""
"vsl-grid-scene-snap","153","482068","0.0-5.0-4.0-30.0","","","[[0,""img/obj8.png"",0],[""img/obj7.png"",0,""img/obj12.png""],[""img/obj10.png"",""img/obj5.png"",""img/obj6.png""]]","","","1,2,1,2,3,3,2,1,6","52","","","","","","","","","","",""
"vsl-grid-scene-snap","154","485087","0.0-5.0-4.0-31.0","","","[[0,""img/obj9.png"",""img/obj7.png""],[""img/obj2.png"",0,""img/obj10.png""],[0,""img/obj4.png"",""img/obj3.png""]]","","","3,1,1,2,3,4,2,1,5","90","","","","","","","","","","",""
"vsl-grid-scene-snap","155","488100","0.0-5.0-4.0-32.0","","","[[""img/obj8.png"",""img/obj4.png"",""img/obj3.png""],[""img/obj11.png"",""img/obj12.png"",0],[""img/obj1.png"",0,0]]","","","1,2,2,2,1,4,1,1,6","43","","","","","","","","","","",""
"vsl-grid-scene-snap","156","491111","0.0-5.0-4.0-33.0","","","[[""img/obj8.png"",0,0],[""img/obj7.png"",""img/obj12.png"",0],[""img/obj10.png"",""img/obj5.png"",""img/obj6.png""]]","","","1,2,1,2,3,3,1,1,6","56","","","","","","","","","","",""
"vsl-grid-scene-snap","157","494117","0.0-5.0-4.0-34.0","","","[[""img/obj7.png"",""img/obj8.png"",0],[""img/obj10.png"",0,""img/obj12.png""],[""img/obj4.png"",""img/obj3.png"",0]]","","","1,1,1,1,3,4,2,1,6","30","","","","","","","","","","",""
"vsl-grid-scene-snap","158","497132","0.0-5.0-4.0-35.0","","","[[0,0,""img/obj7.png""],[0,""img/obj9.png"",""img/obj10.png""],[""img/obj2.png"",""img/obj5.png"",""img/obj6.png""]]","","","3,1,1,2,3,3,2,2,5","84","","","","","","","","","","",""
"vsl-grid-scene-snap","159","500146","0.0-5.0-4.0-36.0","","","[[""img/obj5.png"",""img/obj6.png"",0],[0,""img/obj9.png"",""img/obj7.png""],[""img/obj2.png"",0,""img/obj10.png""]]","","","3,2,1,1,1,3,2,2,5","108","","","","","","","","","","",""
"vsl-grid-scene-snap","160","503849","0.0-5.0-4.0-37.0","","","[[0,""img/obj4.png"",""img/obj3.png""],[0,""img/obj9.png"",""img/obj11.png""],[""img/obj2.png"",0,""img/obj1.png""]]","","","3,2,2,2,1,4,2,2,5","123","","","","","","","","","","",""
"vsl-grid-scene-snap","161","507407","0.0-5.0-4.0-38.0","","","[[""img/obj5.png"",""img/obj6.png"",""img/obj11.png""],[""img/obj8.png"",0,""img/obj1.png""],[0,""img/obj12.png"",0]]","","","3,1,2,1,1,3,1,2,6","77","","","","","","","","","","",""
"vsl-grid-scene-snap","162","510426","0.0-5.0-4.0-39.0","","","[[""img/obj8.png"",0,""img/obj11.png""],[0,""img/obj12.png"",""img/obj1.png""],[""img/obj4.png"",""img/obj3.png"",0]]","","","3,1,2,1,3,4,1,1,6","103","","","","","","","","","","",""
"vsl-grid-scene-snap","163","513447","0.0-5.0-4.0-40.0","","","[[0,""img/obj9.png"",""img/obj11.png""],[""img/obj2.png"",0,""img/obj1.png""],[0,""img/obj4.png"",""img/obj3.png""]]","","","3,1,2,2,3,4,2,1,5","91","","","","","","","","","","",""
"vsl-grid-scene-snap","164","516467","0.0-5.0-4.0-41.0","","","[[""img/obj4.png"",""img/obj3.png"",0],[""img/obj11.png"",0,""img/obj9.png""],[""img/obj1.png"",""img/obj2.png"",0]]","","","1,2,2,1,1,4,3,2,5","63","","","","","","","","","","",""
"vsl-grid-scene-snap","165","519473","0.0-5.0-4.0-42.0","","","[[""img/obj8.png"",""img/obj5.png"",""img/obj6.png""],[0,""img/obj12.png"",""img/obj11.png""],[0,0,""img/obj1.png""]]","","","3,2,2,2,1,3,1,1,6","129","","","","","","","","","","",""
"vsl-grid-scene-snap","166","522492","0.0-5.0-4.0-43.0","","","[[""img/obj11.png"",0,0],[""img/obj1.png"",""img/obj8.png"",0],[""img/obj4.png"",""img/obj3.png"",""img/obj12.png""]]","","","1,1,2,1,3,4,2,2,6","35","","","","","","","","","","",""
"vsl-grid-scene-snap","167","525500","0.0-5.0-4.0-44.0","","","[[0,0,""img/obj11.png""],[0,""img/obj9.png"",""img/obj1.png""],[""img/obj2.png"",""img/obj4.png"",""img/obj3.png""]]","","","3,1,2,2,3,4,2,2,5","87","","","","","","","","","","",""
"vsl-grid-scene-snap","168","528510","0.0-5.0-4.0-45.0","","","[[""img/obj5.png"",""img/obj6.png"",""img/obj11.png""],[0,""img/obj8.png"",""img/obj1.png""],[0,0,""img/obj12.png""]]","","","3,1,2,1,1,3,2,2,6","81","","","","","","","","","","",""
"vsl-grid-scene-snap","169","531528","0.0-5.0-4.0-46.0","","","[[0,0,""img/obj11.png""],[0,""img/obj9.png"",""img/obj1.png""],[""img/obj2.png"",""img/obj5.png"",""img/obj6.png""]]","","","3,1,2,2,3,3,2,2,5","85","","","","","","","","","","",""
"vsl-grid-scene-snap","170","534549","0.0-5.0-4.0-47.0","","","[[0,""img/obj4.png"",""img/obj3.png""],[""img/obj7.png"",""img/obj8.png"",0],[""img/obj10.png"",0,""img/obj12.png""]]","","","1,2,1,2,1,4,2,2,6","46","","","","","","","","","","",""
"vsl-grid-attention-check","171","538569","0.0-5.0-5.0-0.0-0.0","","null","[[""img/square.png"",""img/square.png"",0],[""img/square.png"",""img/attention.png"",""img/square.png""],[""img/square.png"",0,0]]","","","","","null","","","","","","","","","",""
"vsl-grid-attention-check","172","541583","0.0-5.0-5.0-0.1-0.1","","null","[[0,""img/square.png"",""img/square.png""],[0,""img/attention.png"",""img/square.png""],[0,""img/square.png"",""img/square.png""]]","","","","","null","","","","","","","","","",""
"vsl-grid-attention-check","173","544599","0.0-5.0-5.0-0.2-0.2","","null","[[""img/square.png"",0,0],[""img/square.png"",""img/attention.png"",""img/square.png""],[0,""img/square.png"",""img/square.png""]]","","","","","null","","","","","","","","","",""
"vsl-grid-attention-check","174","547609","0.0-5.0-5.0-0.3-0.3","","null","[[""img/square.png"",""img/square.png"",0],[""img/square.png"",""img/attention.png"",0],[0,""img/square.png"",""img/square.png""]]","","","","","null","","","","","","","","","",""
"vsl-grid-attention-check","175","550620","0.0-5.0-5.0-0.4-0.4","","null","[[""img/square.png"",""img/square.png"",0],[""img/square.png"",""img/attention.png"",0],[""img/square.png"",0,""img/square.png""]]","","","","","null","","","","","","","","","",""
"vsl-grid-attention-check","176","553624","0.0-5.0-5.0-0.5-0.5","","null","[[""img/square.png"",""img/square.png"",""img/square.png""],[""img/square.png"",""img/attention.png"",""img/square.png""],[0,0,0]]","","","","","null","","","","","","","","","",""
"vsl-grid-attention-check","177","556637","0.0-5.0-5.0-0.6-0.6","","null","[[0,0,0],[""img/square.png"",""img/attention.png"",""img/square.png""],[""img/square.png"",""img/square.png"",""img/square.png""]]","","","","","null","","","","","","","","","",""
"vsl-grid-attention-check","178","559648","0.0-5.0-5.0-0.7-0.7","","null","[[0,0,""img/square.png""],[""img/square.png"",""img/attention.png"",""img/square.png""],[""img/square.png"",0,""img/square.png""]]","","","","","null","","","","","","","","","",""
"vsl-grid-attention-check","179","562652","0.0-5.0-5.0-0.8-0.8","","null","[[""img/square.png"",""img/square.png"",""img/square.png""],[""img/square.png"",""img/attention.png"",0],[0,""img/square.png"",0]]","","","","","null","","","","","","","","","",""
"vsl-grid-attention-check","180","565669","0.0-5.0-5.0-0.9-0.9","","null","[[0,""img/square.png"",0],[0,""img/attention.png"",""img/square.png""],[""img/square.png"",""img/square.png"",""img/square.png""]]","","","","","null","","","","","","","","","",""
"vsl-grid-attention-check","181","568674","0.0-5.0-5.0-0.10-0.10","","null","[[""img/square.png"",""img/square.png"",0],[0,""img/attention.png"",""img/square.png""],[""img/square.png"",""img/square.png"",0]]","","","","","null","","","","","","","","","",""
"vsl-grid-attention-check","182","571690","0.0-5.0-5.0-0.11-0.11","","null","[[0,""img/square.png"",0],[0,""img/attention.png"",""img/square.png""],[""img/square.png"",""img/square.png"",""img/square.png""]]","","","","","null","","","","","","","","","",""
"vsl-grid-attention-check","183","574692","0.0-5.0-5.0-0.12-0.12","","null","[[""img/square.png"",0,""img/square.png""],[0,""img/attention.png"",""img/square.png""],[""img/square.png"",0,""img/square.png""]]","","","","","null","","","","","","","","","",""
"vsl-grid-attention-check","184","577705","0.0-5.0-5.0-0.13-0.13","","null","[[""img/square.png"",""img/square.png"",0],[""img/square.png"",""img/attention.png"",0],[0,""img/square.png"",""img/square.png""]]","","","","","null","","","","","","","","","",""
"vsl-grid-attention-check","185","580719","0.0-5.0-5.0-0.14-0.14","","null","[[""img/square.png"",""img/square.png"",0],[0,""img/attention.png"",""img/square.png""],[0,""img/square.png"",""img/square.png""]]","","","","","null","","","","","","","","","",""
"vsl-grid-attention-check","186","583725","0.0-5.0-5.0-0.15-0.15","","null","[[""img/square.png"",""img/square.png"",""img/square.png""],[0,""img/attention.png"",0],[""img/square.png"",0,""img/square.png""]]","","","","","null","","","","","","","","","",""
"vsl-grid-attention-check","187","586736","0.0-5.0-5.0-0.16-0.16","","null","[[0,""img/square.png"",""img/square.png""],[""img/square.png"",""img/attention.png"",""img/square.png""],[0,0,""img/square.png""]]","","","","","null","","","","","","","","","",""
"vsl-grid-attention-check","188","589751","0.0-5.0-5.0-0.17-0.17","","null","[[0,""img/square.png"",""img/square.png""],[""img/square.png"",""img/attention.png"",""img/square.png""],[""img/square.png"",0,0]]","","","","","null","","","","","","","","","",""
"vsl-grid-attention-check","189","592767","0.0-5.0-5.0-0.18-0.18","","null","[[0,0,""img/square.png""],[""img/square.png"",""img/attention.png"",0],[""img/square.png"",""img/square.png"",""img/square.png""]]","","","","","null","","","","","","","","","",""
"vsl-grid-attention-check","190","595775","0.0-5.0-5.0-0.19-0.19","","null","[[""img/square.png"",0,""img/square.png""],[""img/square.png"",""img/attention.png"",""img/square.png""],[""img/square.png"",0,0]]","","","","","null","","","","","","","","","",""
"vsl-grid-attention-check","191","598781","0.0-5.0-5.0-0.20-0.20","","null","[[""img/square.png"",""img/square.png"",0],[0,""img/attention.png"",""img/square.png""],[""img/square.png"",0,""img/square.png""]]","","","","","null","","","","","","","","","",""
"vsl-grid-attention-check","192","601790","0.0-5.0-5.0-0.21-0.21","","null","[[0,""img/square.png"",0],[""img/square.png"",""img/attention.png"",""img/square.png""],[0,""img/square.png"",""img/square.png""]]","","","","","null","","","","","","","","","",""
"vsl-grid-attention-check","193","604801","0.0-5.0-5.0-0.22-0.22","","null","[[0,""img/square.png"",""img/square.png""],[""img/square.png"",""img/attention.png"",0],[0,""img/square.png"",""img/square.png""]]","","","","","null","","","","","","","","","",""
"vsl-grid-attention-check","194","607805","0.0-5.0-5.0-0.23-0.23","","null","[[0,""img/square.png"",""img/square.png""],[0,""img/attention.png"",0],[""img/square.png"",""img/square.png"",""img/square.png""]]","","","","","null","","","","","","","","","",""
"vsl-grid-attention-check","195","608630","0.0-5.0-5.0-0.24-0.24","","823.7000000476837","[[0,""img/square.png"",""img/square.png""],[""img/square.png"",""img/attention.png"",""img/square.png""],[0,""img/square.png"",0]]","","","","","32","","","","","","","","","",""
"html-keyboard-response","196","609631","0.0-5.0-5.0-1.0","","null"," ","","","","","null","","","","","","","","","",""
"vsl-grid-scene-snap","197","611642","0.0-5.0-6.0-0.0","","","[[0,0,""img/obj9.png""],[""img/obj11.png"",""img/obj2.png"",0],[""img/obj1.png"",""img/obj5.png"",""img/obj6.png""]]","","","1,2,2,2,3,3,3,1,5","49","","","","","","","","","","",""
"vsl-grid-scene-snap","198","614644","0.0-5.0-6.0-1.0","","","[[""img/obj11.png"",""img/obj4.png"",""img/obj3.png""],[""img/obj1.png"",0,""img/obj9.png""],[0,""img/obj2.png"",0]]","","","1,1,2,2,1,4,3,2,5","3","","","","","","","","","","",""
"vsl-grid-scene-snap","199","617655","0.0-5.0-6.0-2.0","","","[[""img/obj11.png"",""img/obj5.png"",""img/obj6.png""],[""img/obj1.png"",0,""img/obj9.png""],[0,""img/obj2.png"",0]]","","","1,1,2,2,1,3,3,2,5","1","","","","","","","","","","",""
"vsl-grid-scene-snap","200","620675","0.0-5.0-6.0-3.0","","","[[""img/obj8.png"",""img/obj4.png"",""img/obj3.png""],[0,""img/obj12.png"",""img/obj11.png""],[0,0,""img/obj1.png""]]","","","3,2,2,2,1,4,1,1,6","131","","","","","","","","","","",""
"vsl-grid-scene-snap","201","623692","0.0-5.0-6.0-4.0","","","[[""img/obj11.png"",""img/obj8.png"",0],[""img/obj1.png"",0,""img/obj12.png""],[""img/obj4.png"",""img/obj3.png"",0]]","","","1,1,2,1,3,4,2,1,6","31","","","","","","","","","","",""
"vsl-grid-scene-snap","202","626694","0.0-5.0-6.0-5.0","","","[[0,""img/obj8.png"",0],[""img/obj11.png"",0,""img/obj12.png""],[""img/obj1.png"",""img/obj4.png"",""img/obj3.png""]]","","","1,2,2,2,3,4,2,1,6","55","","","","","","","","","","",""
"vsl-grid-scene-snap","203","629719","0.0-5.0-6.0-6.0","","","[[""img/obj4.png"",""img/obj3.png"",0],[""img/obj7.png"",""img/obj8.png"",0],[""img/obj10.png"",0,""img/obj12.png""]]","","","1,2,1,1,1,4,2,2,6","70","","","","","","","","","","",""
"vsl-grid-scene-snap","204","632735","0.0-5.0-6.0-7.0","","","[[""img/obj5.png"",""img/obj6.png"",0],[""img/obj11.png"",""img/obj8.png"",0],[""img/obj1.png"",0,""img/obj12.png""]]","","","1,2,2,1,1,3,2,2,6","69","","","","","","","","","","",""
"vsl-grid-scene-snap","205","635750","0.0-5.0-6.0-8.0","","","[[""img/obj11.png"",0,""img/obj9.png""],[""img/obj1.png"",""img/obj2.png"",0],[""img/obj5.png"",""img/obj6.png"",0]]","","","1,1,2,1,3,3,3,1,5","25","","","","","","","","","","",""
"vsl-grid-scene-snap","206","638769","0.0-5.0-6.0-9.0","","","[[""img/obj5.png"",""img/obj6.png"",0],[""img/obj7.png"",""img/obj8.png"",0],[""img/obj10.png"",0,""img/obj12.png""]]","","","1,2,1,1,1,3,2,2,6","68","","","","","","","","","","",""
"vsl-grid-scene-snap","207","641791","0.0-5.0-6.0-10.0","","","[[0,""img/obj9.png"",0],[""img/obj2.png"",0,""img/obj11.png""],[""img/obj4.png"",""img/obj3.png"",""img/obj1.png""]]","","","3,2,2,1,3,4,2,1,5","135","","","","","","","","","","",""
"vsl-grid-scene-snap","208","644810","0.0-5.0-6.0-11.0","","","[[""img/obj7.png"",0,""img/obj9.png""],[""img/obj10.png"",""img/obj2.png"",0],[0,""img/obj4.png"",""img/obj3.png""]]","","","1,1,1,2,3,4,3,1,5","14","","","","","","","","","","",""
"vsl-grid-scene-snap","209","647823","0.0-5.0-6.0-12.0","","","[[0,0,""img/obj9.png""],[0,""img/obj2.png"",""img/obj11.png""],[""img/obj5.png"",""img/obj6.png"",""img/obj1.png""]]","","","3,2,2,1,3,3,3,1,5","141","","","","","","","","","","",""
"vsl-grid-scene-snap","210","650843","0.0-5.0-6.0-13.0","","","[[0,0,""img/obj9.png""],[""img/obj7.png"",""img/obj2.png"",0],[""img/obj10.png"",""img/obj4.png"",""img/obj3.png""]]","","","1,2,1,2,3,4,3,1,5","50","","","","","","","","","","",""
"vsl-grid-scene-snap","211","653859","0.0-5.0-6.0-14.0","","","[[""img/obj4.png"",""img/obj3.png"",0],[0,""img/obj9.png"",""img/obj7.png""],[""img/obj2.png"",0,""img/obj10.png""]]","","","3,2,1,1,1,4,2,2,5","110","","","","","","","","","","",""
"vsl-grid-scene-snap","212","656872","0.0-5.0-6.0-15.0","","","[[0,""img/obj5.png"",""img/obj6.png""],[""img/obj7.png"",0,""img/obj9.png""],[""img/obj10.png"",""img/obj2.png"",0]]","","","1,2,1,2,1,3,3,2,5","36","","","","","","","","","","",""
"vsl-grid-scene-snap","213","659891","0.0-5.0-6.0-16.0","","","[[0,""img/obj5.png"",""img/obj6.png""],[""img/obj11.png"",0,""img/obj9.png""],[""img/obj1.png"",""img/obj2.png"",0]]","","","1,2,2,2,1,3,3,2,5","37","","","","","","","","","","",""
"vsl-grid-scene-snap","214","662913","0.0-5.0-6.0-17.0","","","[[""img/obj7.png"",""img/obj5.png"",""img/obj6.png""],[""img/obj10.png"",""img/obj9.png"",0],[""img/obj2.png"",0,0]]","","","1,1,1,2,1,3,2,2,5","4","","","","","","","","","","",""
"vsl-grid-scene-snap","215","665928","0.0-5.0-6.0-18.0","","","[[""img/obj11.png"",0,""img/obj9.png""],[""img/obj1.png"",""img/obj2.png"",0],[""img/obj4.png"",""img/obj3.png"",0]]","","","1,1,2,1,3,4,3,1,5","27","","","","","","","","","","",""
"vsl-grid-scene-snap","216","668944","0.0-5.0-6.0-19.0","","","[[""img/obj11.png"",0,0],[""img/obj1.png"",""img/obj9.png"",0],[""img/obj2.png"",""img/obj4.png"",""img/obj3.png""]]","","","1,1,2,2,3,4,2,2,5","19","","","","","","","","","","",""
"vsl-grid-scene-snap","217","671966","0.0-5.0-6.0-20.0","","","[[""img/obj7.png"",""img/obj8.png"",0],[""img/obj10.png"",0,""img/obj12.png""],[0,""img/obj5.png"",""img/obj6.png""]]","","","1,1,1,2,3,3,2,1,6","20","","","","","","","","","","",""
"vsl-grid-scene-snap","218","674974","0.0-5.0-6.0-21.0","","","[[""img/obj7.png"",""img/obj8.png"",0],[""img/obj10.png"",0,""img/obj12.png""],[0,""img/obj4.png"",""img/obj3.png""]]","","","1,1,1,2,3,4,2,1,6","22","","","","","","","","","","",""
"vsl-grid-scene-snap","219","677990","0.0-5.0-6.0-22.0","","","[[0,""img/obj9.png"",""img/obj11.png""],[""img/obj2.png"",0,""img/obj1.png""],[""img/obj4.png"",""img/obj3.png"",0]]","","","3,1,2,1,3,4,2,1,5","99","","","","","","","","","","",""
"vsl-grid-scene-snap","220","681001","0.0-5.0-6.0-23.0","","","[[""img/obj4.png"",""img/obj3.png"",""img/obj9.png""],[""img/obj11.png"",""img/obj2.png"",0],[""img/obj1.png"",0,0]]","","","1,2,2,1,1,4,3,1,5","67","","","","","","","","","","",""
"vsl-grid-scene-snap","221","684010","0.0-5.0-6.0-24.0","","","[[0,""img/obj9.png"",""img/obj11.png""],[""img/obj2.png"",0,""img/obj1.png""],[""img/obj5.png"",""img/obj6.png"",0]]","","","3,1,2,1,3,3,2,1,5","97","","","","","","","","","","",""
"vsl-grid-scene-snap","222","687035","0.0-5.0-6.0-25.0","","","[[""img/obj7.png"",0,0],[""img/obj10.png"",""img/obj9.png"",0],[""img/obj2.png"",""img/obj5.png"",""img/obj6.png""]]","","","1,1,1,2,3,3,2,2,5","16","","","","","","","","","","",""
"vsl-grid-scene-snap","223","690050","0.0-5.0-6.0-26.0","","","[[""img/obj8.png"",0,""img/obj7.png""],[0,""img/obj12.png"",""img/obj10.png""],[""img/obj5.png"",""img/obj6.png"",0]]","","","3,1,1,1,3,3,1,1,6","100","","","","","","","","","","",""
"vsl-grid-scene-snap","224","693064","0.0-5.0-6.0-27.0","","","[[""img/obj5.png"",""img/obj6.png"",""img/obj9.png""],[""img/obj7.png"",""img/obj2.png"",0],[""img/obj10.png"",0,0]]","","","1,2,1,1,1,3,3,1,5","64","","","","","","","","","","",""
"vsl-grid-scene-snap","225","696081","0.0-5.0-6.0-28.0","","","[[0,""img/obj9.png"",""img/obj7.png""],[""img/obj2.png"",0,""img/obj10.png""],[0,""img/obj5.png"",""img/obj6.png""]]","","","3,1,1,2,3,3,2,1,5","88","","","","","","","","","","",""
"vsl-grid-scene-snap","226","699095","0.0-5.0-6.0-29.0","","","[[""img/obj8.png"",0,""img/obj11.png""],[0,""img/obj12.png"",""img/obj1.png""],[0,""img/obj5.png"",""img/obj6.png""]]","","","3,1,2,2,3,3,1,1,6","93","","","","","","","","","","",""
"vsl-grid-scene-snap","227","702106","0.0-5.0-6.0-30.0","","","[[""img/obj11.png"",0,0],[""img/obj1.png"",""img/obj9.png"",0],[""img/obj2.png"",""img/obj5.png"",""img/obj6.png""]]","","","1,1,2,2,3,3,2,2,5","17","","","","","","","","","","",""
"vsl-grid-scene-snap","228","705129","0.0-5.0-6.0-31.0","","","[[""img/obj5.png"",""img/obj6.png"",""img/obj9.png""],[0,""img/obj2.png"",""img/obj7.png""],[0,0,""img/obj10.png""]]","","","3,2,1,1,1,3,3,1,5","116","","","","","","","","","","",""
"vsl-grid-scene-snap","229","708148","0.0-5.0-6.0-32.0","","","[[0,""img/obj4.png"",""img/obj3.png""],[""img/obj8.png"",0,""img/obj11.png""],[0,""img/obj12.png"",""img/obj1.png""]]","","","3,2,2,2,1,4,1,2,6","127","","","","","","","","","","",""
"vsl-grid-scene-snap","230","711162","0.0-5.0-6.0-33.0","","","[[0,""img/obj9.png"",""img/obj7.png""],[""img/obj2.png"",0,""img/obj10.png""],[""img/obj4.png"",""img/obj3.png"",0]]","","","3,1,1,1,3,4,2,1,5","98","","","","","","","","","","",""
"vsl-grid-scene-snap","231","714178","0.0-5.0-6.0-34.0","","","[[""img/obj7.png"",0,0],[""img/obj10.png"",""img/obj8.png"",0],[""img/obj5.png"",""img/obj6.png"",""img/obj12.png""]]","","","1,1,1,1,3,3,2,2,6","32","","","","","","","","","","",""
"vsl-grid-scene-snap","232","717187","0.0-5.0-6.0-35.0","","","[[""img/obj4.png"",""img/obj3.png"",0],[""img/obj7.png"",0,""img/obj9.png""],[""img/obj10.png"",""img/obj2.png"",0]]","","","1,2,1,1,1,4,3,2,5","62","","","","","","","","","","",""
"vsl-grid-scene-snap","233","720193","0.0-5.0-6.0-36.0","","","[[""img/obj7.png"",""img/obj5.png"",""img/obj6.png""],[""img/obj10.png"",""img/obj8.png"",0],[0,0,""img/obj12.png""]]","","","1,1,1,2,1,3,2,2,6","8","","","","","","","","","","",""
"vsl-grid-scene-snap","234","723209","0.0-5.0-6.0-37.0","","","[[""img/obj5.png"",""img/obj6.png"",0],[""img/obj7.png"",0,""img/obj9.png""],[""img/obj10.png"",""img/obj2.png"",0]]","","","1,2,1,1,1,3,3,2,5","60","","","","","","","","","","",""
"vsl-grid-scene-snap","235","726231","0.0-5.0-6.0-38.0","","","[[""img/obj4.png"",""img/obj3.png"",""img/obj11.png""],[0,""img/obj8.png"",""img/obj1.png""],[0,0,""img/obj12.png""]]","","","3,1,2,1,1,4,2,2,6","83","","","","","","","","","","",""
"vsl-grid-scene-snap","236","729248","0.0-5.0-6.0-39.0","","","[[0,0,""img/obj9.png""],[0,""img/obj2.png"",""img/obj11.png""],[""img/obj4.png"",""img/obj3.png"",""img/obj1.png""]]","","","3,2,2,1,3,4,3,1,5","143","","","","","","","","","","",""
"vsl-grid-scene-snap","237","732267","0.0-5.0-6.0-40.0","","","[[""img/obj11.png"",0,""img/obj9.png""],[""img/obj1.png"",""img/obj2.png"",0],[0,""img/obj4.png"",""img/obj3.png""]]","","","1,1,2,2,3,4,3,1,5","15","","","","","","","","","","",""
"vsl-grid-scene-snap","238","735284","0.0-5.0-6.0-41.0","","","[[""img/obj11.png"",0,0],[""img/obj1.png"",""img/obj8.png"",0],[""img/obj5.png"",""img/obj6.png"",""img/obj12.png""]]","","","1,1,2,1,3,3,2,2,6","33","","","","","","","","","","",""
"vsl-grid-scene-snap","239","738293","0.0-5.0-6.0-42.0","","","[[""img/obj11.png"",""img/obj5.png"",""img/obj6.png""],[""img/obj1.png"",""img/obj9.png"",0],[""img/obj2.png"",0,0]]","","","1,1,2,2,1,3,2,2,5","5","","","","","","","","","","",""
"vsl-grid-scene-snap","240","741305","0.0-5.0-6.0-43.0","","","[[0,""img/obj8.png"",0],[""img/obj11.png"",0,""img/obj12.png""],[""img/obj1.png"",""img/obj5.png"",""img/obj6.png""]]","","","1,2,2,2,3,3,2,1,6","53","","","","","","","","","","",""
"vsl-grid-scene-snap","241","744307","0.0-5.0-6.0-44.0","","","[[0,""img/obj5.png"",""img/obj6.png""],[""img/obj8.png"",0,""img/obj7.png""],[0,""img/obj12.png"",""img/obj10.png""]]","","","3,2,1,2,1,3,1,2,6","124","","","","","","","","","","",""
"vsl-grid-scene-snap","242","747319","0.0-5.0-6.0-45.0","","","[[""img/obj5.png"",""img/obj6.png"",0],[""img/obj8.png"",0,""img/obj7.png""],[0,""img/obj12.png"",""img/obj10.png""]]","","","3,2,1,1,1,3,1,2,6","112","","","","","","","","","","",""
"vsl-grid-scene-snap","243","750343","0.0-5.0-6.0-46.0","","","[[""img/obj4.png"",""img/obj3.png"",""img/obj7.png""],[""img/obj8.png"",0,""img/obj10.png""],[0,""img/obj12.png"",0]]","","","3,1,1,1,1,4,1,2,6","78","","","","","","","","","","",""
"vsl-grid-scene-snap","244","753357","0.0-5.0-6.0-47.0","","","[[0,""img/obj5.png"",""img/obj6.png""],[""img/obj8.png"",0,""img/obj11.png""],[0,""img/obj12.png"",""img/obj1.png""]]","","","3,2,2,2,1,3,1,2,6","125","","","","","","","","","","",""
"vsl-grid-attention-check","245","757374","0.0-5.0-7.0-0.0-0.0","","null","[[""img/square.png"",""img/square.png"",0],[""img/square.png"",""img/attention.png"",""img/square.png""],[""img/square.png"",0,0]]","","","","","null","","","","","","","","","",""
"vsl-grid-attention-check","246","760377","0.0-5.0-7.0-0.1-0.1","","null","[[""img/square.png"",0,0],[0,""img/attention.png"",""img/square.png""],[""img/square.png"",""img/square.png"",""img/square.png""]]","","","","","null","","","","","","","","","",""
"vsl-grid-attention-check","247","763393","0.0-5.0-7.0-0.2-0.2","","null","[[0,""img/square.png"",""img/square.png""],[""img/square.png"",""img/attention.png"",0],[""img/square.png"",0,""img/square.png""]]","","","","","null","","","","","","","","","",""
"vsl-grid-attention-check","248","766405","0.0-5.0-7.0-0.3-0.3","","null","[[""img/square.png"",0,0],[""img/square.png"",""img/attention.png"",""img/square.png""],[0,""img/square.png"",""img/square.png""]]","","","","","null","","","","","","","","","",""
"vsl-grid-attention-check","249","769408","0.0-5.0-7.0-0.4-0.4","","null","[[0,""img/square.png"",0],[""img/square.png"",""img/attention.png"",0],[""img/square.png"",""img/square.png"",""img/square.png""]]","","","","","null","","","","","","","","","",""
"vsl-grid-attention-check","250","770813","0.0-5.0-7.0-0.5-0.5","","1403","[[0,""img/square.png"",""img/square.png""],[""img/square.png"",""img/attention.png"",""img/square.png""],[""img/square.png"",0,0]]","","","","","32","","","","","","","","","",""
"html-keyboard-response","251","771823","0.0-5.0-7.0-1.0","","null"," ","","","","","null","","","","","","","","","",""
"vsl-grid-scene-snap","252","773831","0.0-5.0-8.0-0.0","","","[[""img/obj11.png"",""img/obj8.png"",0],[""img/obj1.png"",0,""img/obj12.png""],[0,""img/obj4.png"",""img/obj3.png""]]","","","1,1,2,2,3,4,2,1,6","23","","","","","","","","","","",""
"vsl-grid-scene-snap","253","776845","0.0-5.0-8.0-1.0","","","[[""img/obj8.png"",""img/obj5.png"",""img/obj6.png""],[0,""img/obj12.png"",""img/obj7.png""],[0,0,""img/obj10.png""]]","","","3,2,1,2,1,3,1,1,6","128","","","","","","","","","","",""
"vsl-grid-scene-snap","254","779865","0.0-5.0-8.0-2.0","","","[[""img/obj5.png"",""img/obj6.png"",""img/obj7.png""],[0,""img/obj9.png"",""img/obj10.png""],[""img/obj2.png"",0,0]]","","","3,1,1,1,1,3,2,2,5","72","","","","","","","","","","",""
"vsl-grid-scene-snap","255","782869","0.0-5.0-8.0-3.0","","","[[""img/obj7.png"",""img/obj8.png"",0],[""img/obj10.png"",0,""img/obj12.png""],[""img/obj5.png"",""img/obj6.png"",0]]","","","1,1,1,1,3,3,2,1,6","28","","","","","","","","","","",""
"vsl-grid-scene-snap","256","785888","0.0-5.0-8.0-4.0","","","[[""img/obj4.png"",""img/obj3.png"",""img/obj9.png""],[0,""img/obj2.png"",""img/obj7.png""],[0,0,""img/obj10.png""]]","","","3,2,1,1,1,4,3,1,5","118","","","","","","","","","","",""
"vsl-grid-scene-snap","257","788907","0.0-5.0-8.0-5.0","","","[[""img/obj5.png"",""img/obj6.png"",""img/obj11.png""],[0,""img/obj9.png"",""img/obj1.png""],[""img/obj2.png"",0,0]]","","","3,1,2,1,1,3,2,2,5","73","","","","","","","","","","",""
"vsl-grid-scene-snap","258","791929","0.0-5.0-8.0-6.0","","","[[""img/obj8.png"",0,0],[""img/obj11.png"",""img/obj12.png"",0],[""img/obj1.png"",""img/obj5.png"",""img/obj6.png""]]","","","1,2,2,2,3,3,1,1,6","57","","","","","","","","","","",""
"vsl-grid-scene-snap","259","794946","0.0-5.0-8.0-7.0","","","[[0,""img/obj9.png"",0],[""img/obj2.png"",0,""img/obj7.png""],[""img/obj4.png"",""img/obj3.png"",""img/obj10.png""]]","","","3,2,1,1,3,4,2,1,5","134","","","","","","","","","","",""
"vsl-grid-scene-snap","260","797961","0.0-5.0-8.0-8.0","","","[[""img/obj5.png"",""img/obj6.png"",""img/obj9.png""],[""img/obj11.png"",""img/obj2.png"",0],[""img/obj1.png"",0,0]]","","","1,2,2,1,1,3,3,1,5","65","","","","","","","","","","",""
"vsl-grid-scene-snap","261","800982","0.0-5.0-8.0-9.0","","","[[""img/obj7.png"",""img/obj5.png"",""img/obj6.png""],[""img/obj10.png"",0,""img/obj9.png""],[0,""img/obj2.png"",0]]","","","1,1,1,2,1,3,3,2,5","0","","","","","","","","","","",""
"vsl-grid-scene-snap","262","804003","0.0-5.0-8.0-10.0","","","[[""img/obj8.png"",""img/obj5.png"",""img/obj6.png""],[""img/obj11.png"",""img/obj12.png"",0],[""img/obj1.png"",0,0]]","","","1,2,2,2,1,3,1,1,6","41","","","","","","","","","","",""
"vsl-grid-scene-snap","263","807012","0.0-5.0-8.0-11.0","","","[[""img/obj7.png"",""img/obj4.png"",""img/obj3.png""],[""img/obj10.png"",""img/obj8.png"",0],[0,0,""img/obj12.png""]]","","","1,1,1,2,1,4,2,2,6","10","","","","","","","","","","",""
"vsl-grid-scene-snap","264","810026","0.0-5.0-8.0-12.0","","","[[""img/obj8.png"",0,0],[0,""img/obj12.png"",""img/obj11.png""],[""img/obj5.png"",""img/obj6.png"",""img/obj1.png""]]","","","3,2,2,1,3,3,1,1,6","137","","","","","","","","","","",""
"vsl-grid-scene-snap","265","813036","0.0-5.0-8.0-13.0","","","[[""img/obj7.png"",0,""img/obj9.png""],[""img/obj10.png"",""img/obj2.png"",0],[""img/obj4.png"",""img/obj3.png"",0]]","","","1,1,1,1,3,4,3,1,5","26","","","","","","","","","","",""
"vsl-grid-scene-snap","266","816052","0.0-5.0-8.0-14.0","","","[[""img/obj7.png"",""img/obj4.png"",""img/obj3.png""],[""img/obj10.png"",0,""img/obj9.png""],[0,""img/obj2.png"",0]]","","","1,1,1,2,1,4,3,2,5","2","","","","","","","","","","",""
"vsl-grid-scene-snap","267","819066","0.0-5.0-8.0-15.0","","","[[0,0,""img/obj11.png""],[0,""img/obj8.png"",""img/obj1.png""],[""img/obj5.png"",""img/obj6.png"",""img/obj12.png""]]","","","3,1,2,1,3,3,2,2,6","105","","","","","","","","","","",""
"vsl-grid-scene-snap","268","822091","0.0-5.0-8.0-16.0","","","[[""img/obj5.png"",""img/obj6.png"",""img/obj7.png""],[0,""img/obj8.png"",""img/obj10.png""],[0,0,""img/obj12.png""]]","","","3,1,1,1,1,3,2,2,6","80","","","","","","","","","","",""
"vsl-grid-scene-snap","269","825114","0.0-5.0-8.0-17.0","","","[[""img/obj4.png"",""img/obj3.png"",0],[0,""img/obj9.png"",""img/obj11.png""],[""img/obj2.png"",0,""img/obj1.png""]]","","","3,2,2,1,1,4,2,2,5","111","","","","","","","","","","",""
"vsl-grid-scene-snap","270","828120","0.0-5.0-8.0-18.0","","","[[0,0,""img/obj11.png""],[0,""img/obj8.png"",""img/obj1.png""],[""img/obj4.png"",""img/obj3.png"",""img/obj12.png""]]","","","3,1,2,1,3,4,2,2,6","107","","","","","","","","","","",""
"vsl-grid-scene-snap","271","831135","0.0-5.0-8.0-19.0","","","[[""img/obj8.png"",0,0],[0,""img/obj12.png"",""img/obj7.png""],[""img/obj5.png"",""img/obj6.png"",""img/obj10.png""]]","","","3,2,1,1,3,3,1,1,6","136","","","","","","","","","","",""
"vsl-grid-scene-snap","272","834165","0.0-5.0-8.0-20.0","","","[[""img/obj11.png"",""img/obj8.png"",0],[""img/obj1.png"",0,""img/obj12.png""],[0,""img/obj5.png"",""img/obj6.png""]]","","","1,1,2,2,3,3,2,1,6","21","","","","","","","","","","",""
"vsl-grid-scene-snap","273","837179","0.0-5.0-8.0-21.0","","","[[0,""img/obj9.png"",""img/obj11.png""],[""img/obj2.png"",0,""img/obj1.png""],[0,""img/obj5.png"",""img/obj6.png""]]","","","3,1,2,2,3,3,2,1,5","89","","","","","","","","","","",""
"vsl-grid-scene-snap","274","840206","0.0-5.0-8.0-22.0","","","[[""img/obj7.png"",0,0],[""img/obj10.png"",""img/obj9.png"",0],[""img/obj2.png"",""img/obj4.png"",""img/obj3.png""]]","","","1,1,1,2,3,4,2,2,5","18","","","","","","","","","","",""
"vsl-grid-scene-snap","275","843215","0.0-5.0-8.0-23.0","","","[[0,""img/obj5.png"",""img/obj6.png""],[""img/obj7.png"",""img/obj8.png"",0],[""img/obj10.png"",0,""img/obj12.png""]]","","","1,2,1,2,1,3,2,2,6","44","","","","","","","","","","",""
"vsl-grid-scene-snap","276","846232","0.0-5.0-8.0-24.0","","","[[""img/obj4.png"",""img/obj3.png"",""img/obj7.png""],[0,""img/obj8.png"",""img/obj10.png""],[0,0,""img/obj12.png""]]","","","3,1,1,1,1,4,2,2,6","82","","","","","","","","","","",""
"vsl-grid-scene-snap","277","849256","0.0-5.0-8.0-25.0","","","[[0,""img/obj4.png"",""img/obj3.png""],[0,""img/obj9.png"",""img/obj7.png""],[""img/obj2.png"",0,""img/obj10.png""]]","","","3,2,1,2,1,4,2,2,5","122","","","","","","","","","","",""
"vsl-grid-scene-snap","278","852260","0.0-5.0-8.0-26.0","","","[[""img/obj8.png"",0,0],[0,""img/obj12.png"",""img/obj11.png""],[""img/obj4.png"",""img/obj3.png"",""img/obj1.png""]]","","","3,2,2,1,3,4,1,1,6","139","","","","","","","","","","",""
"vsl-grid-scene-snap","279","855272","0.0-5.0-8.0-27.0","","","[[""img/obj11.png"",""img/obj8.png"",0],[""img/obj1.png"",0,""img/obj12.png""],[""img/obj5.png"",""img/obj6.png"",0]]","","","1,1,2,1,3,3,2,1,6","29","","","","","","","","","","",""
"vsl-grid-scene-snap","280","858282","0.0-5.0-8.0-28.0","","","[[""img/obj4.png"",""img/obj3.png"",""img/obj9.png""],[0,""img/obj2.png"",""img/obj11.png""],[0,0,""img/obj1.png""]]","","","3,2,2,1,1,4,3,1,5","119","","","","","","","","","","",""
"vsl-grid-scene-snap","281","861298","0.0-5.0-8.0-29.0","","","[[""img/obj11.png"",""img/obj4.png"",""img/obj3.png""],[""img/obj1.png"",""img/obj9.png"",0],[""img/obj2.png"",0,0]]","","","1,1,2,2,1,4,2,2,5","7","","","","","","","","","","",""
"vsl-grid-scene-snap","282","864326","0.0-5.0-8.0-30.0","","","[[""img/obj4.png"",""img/obj3.png"",""img/obj7.png""],[0,""img/obj9.png"",""img/obj10.png""],[""img/obj2.png"",0,0]]","","","3,1,1,1,1,4,2,2,5","74","","","","","","","","","","",""
"vsl-grid-scene-snap","283","867342","0.0-5.0-8.0-31.0","","","[[""img/obj5.png"",""img/obj6.png"",0],[""img/obj8.png"",0,""img/obj11.png""],[0,""img/obj12.png"",""img/obj1.png""]]","","","3,2,2,1,1,3,1,2,6","113","","","","","","","","","","",""
"vsl-grid-scene-snap","284","870358","0.0-5.0-8.0-32.0","","","[[0,0,""img/obj9.png""],[0,""img/obj2.png"",""img/obj7.png""],[""img/obj5.png"",""img/obj6.png"",""img/obj10.png""]]","","","3,2,1,1,3,3,3,1,5","140","","","","","","","","","","",""
"vsl-grid-scene-snap","285","873374","0.0-5.0-8.0-33.0","","","[[""img/obj11.png"",""img/obj5.png"",""img/obj6.png""],[""img/obj1.png"",""img/obj8.png"",0],[0,0,""img/obj12.png""]]","","","1,1,2,2,1,3,2,2,6","9","","","","","","","","","","",""
"vsl-grid-scene-snap","286","876397","0.0-5.0-8.0-34.0","","","[[0,""img/obj9.png"",""img/obj7.png""],[""img/obj2.png"",0,""img/obj10.png""],[""img/obj5.png"",""img/obj6.png"",0]]","","","3,1,1,1,3,3,2,1,5","96","","","","","","","","","","",""
"vsl-grid-scene-snap","287","879401","0.0-5.0-8.0-35.0","","","[[""img/obj8.png"",0,""img/obj7.png""],[0,""img/obj12.png"",""img/obj10.png""],[0,""img/obj5.png"",""img/obj6.png""]]","","","3,1,1,2,3,3,1,1,6","92","","","","","","","","","","",""
"vsl-grid-scene-snap","288","882418","0.0-5.0-8.0-36.0","","","[[""img/obj8.png"",0,""img/obj11.png""],[0,""img/obj12.png"",""img/obj1.png""],[0,""img/obj4.png"",""img/obj3.png""]]","","","3,1,2,2,3,4,1,1,6","95","","","","","","","","","","",""
"vsl-grid-scene-snap","289","885438","0.0-5.0-8.0-37.0","","","[[""img/obj5.png"",""img/obj6.png"",""img/obj7.png""],[""img/obj8.png"",0,""img/obj10.png""],[0,""img/obj12.png"",0]]","","","3,1,1,1,1,3,1,2,6","76","","","","","","","","","","",""
"vsl-grid-scene-snap","290","888454","0.0-5.0-8.0-38.0","","","[[0,""img/obj5.png"",""img/obj6.png""],[0,""img/obj9.png"",""img/obj7.png""],[""img/obj2.png"",0,""img/obj10.png""]]","","","3,2,1,2,1,3,2,2,5","120","","","","","","","","","","",""
"vsl-grid-scene-snap","291","891462","0.0-5.0-8.0-39.0","","","[[0,0,""img/obj9.png""],[0,""img/obj2.png"",""img/obj7.png""],[""img/obj4.png"",""img/obj3.png"",""img/obj10.png""]]","","","3,2,1,1,3,4,3,1,5","142","","","","","","","","","","",""
"vsl-grid-scene-snap","292","894473","0.0-5.0-8.0-40.0","","","[[0,""img/obj4.png"",""img/obj3.png""],[""img/obj11.png"",""img/obj8.png"",0],[""img/obj1.png"",0,""img/obj12.png""]]","","","1,2,2,2,1,4,2,2,6","47","","","","","","","","","","",""
"vsl-grid-scene-snap","293","897484","0.0-5.0-8.0-41.0","","","[[""img/obj11.png"",""img/obj4.png"",""img/obj3.png""],[""img/obj1.png"",""img/obj8.png"",0],[0,0,""img/obj12.png""]]","","","1,1,2,2,1,4,2,2,6","11","","","","","","","","","","",""
"vsl-grid-scene-snap","294","900497","0.0-5.0-8.0-42.0","","","[[""img/obj7.png"",0,0],[""img/obj10.png"",""img/obj8.png"",0],[""img/obj4.png"",""img/obj3.png"",""img/obj12.png""]]","","","1,1,1,1,3,4,2,2,6","34","","","","","","","","","","",""
"vsl-grid-scene-snap","295","903510","0.0-5.0-8.0-43.0","","","[[0,""img/obj4.png"",""img/obj3.png""],[""img/obj8.png"",0,""img/obj7.png""],[0,""img/obj12.png"",""img/obj10.png""]]","","","3,2,1,2,1,4,1,2,6","126","","","","","","","","","","",""
"vsl-grid-scene-snap","296","906531","0.0-5.0-8.0-44.0","","","[[0,0,""img/obj9.png""],[""img/obj11.png"",""img/obj2.png"",0],[""img/obj1.png"",""img/obj4.png"",""img/obj3.png""]]","","","1,2,2,2,3,4,3,1,5","51","","","","","","","","","","",""
"vsl-grid-scene-snap","297","909546","0.0-5.0-8.0-45.0","","","[[""img/obj7.png"",0,""img/obj9.png""],[""img/obj10.png"",""img/obj2.png"",0],[0,""img/obj5.png"",""img/obj6.png""]]","","","1,1,1,2,3,3,3,1,5","12","","","","","","","","","","",""
"vsl-grid-scene-snap","298","912555","0.0-5.0-8.0-46.0","","","[[""img/obj8.png"",0,""img/obj7.png""],[0,""img/obj12.png"",""img/obj10.png""],[""img/obj4.png"",""img/obj3.png"",0]]","","","3,1,1,1,3,4,1,1,6","102","","","","","","","","","","",""
"vsl-grid-scene-snap","299","915579","0.0-5.0-8.0-47.0","","","[[""img/obj11.png"",0,""img/obj9.png""],[""img/obj1.png"",""img/obj2.png"",0],[0,""img/obj5.png"",""img/obj6.png""]]","","","1,1,2,2,3,3,3,1,5","13","","","","","","","","","","",""
"vsl-grid-attention-check","300","919604","0.0-5.0-9.0-0.0-0.0","","null","[[""img/square.png"",0,0],[""img/square.png"",""img/attention.png"",0],[""img/square.png"",""img/square.png"",""img/square.png""]]","","","","","null","","","","","","","","","",""
"vsl-grid-attention-check","301","922607","0.0-5.0-9.0-0.1-0.1","","null","[[""img/square.png"",""img/square.png"",""img/square.png""],[""img/square.png"",""img/attention.png"",0],[0,""img/square.png"",0]]","","","","","null","","","","","","","","","",""
"vsl-grid-attention-check","302","925623","0.0-5.0-9.0-0.2-0.2","","null","[[""img/square.png"",""img/square.png"",""img/square.png""],[0,""img/attention.png"",""img/square.png""],[""img/square.png"",0,0]]","","","","","null","","","","","","","","","",""
"vsl-grid-attention-check","303","928634","0.0-5.0-9.0-0.3-0.3","","null","[[""img/square.png"",0,""img/square.png""],[""img/square.png"",""img/attention.png"",""img/square.png""],[""img/square.png"",0,0]]","","","","","null","","","","","","","","","",""
"vsl-grid-attention-check","304","931642","0.0-5.0-9.0-0.4-0.4","","null","[[""img/square.png"",0,""img/square.png""],[0,""img/attention.png"",""img/square.png""],[""img/square.png"",""img/square.png"",0]]","","","","","null","","","","","","","","","",""
"vsl-grid-attention-check","305","934656","0.0-5.0-9.0-0.5-0.5","","null","[[""img/square.png"",""img/square.png"",""img/square.png""],[0,""img/attention.png"",0],[""img/square.png"",""img/square.png"",0]]","","","","","null","","","","","","","","","",""
"vsl-grid-attention-check","306","937665","0.0-5.0-9.0-0.6-0.6","","null","[[""img/square.png"",""img/square.png"",0],[""img/square.png"",""img/attention.png"",""img/square.png""],[0,""img/square.png"",0]]","","","","","null","","","","","","","","","",""
"vsl-grid-attention-check","307","940680","0.0-5.0-9.0-0.7-0.7","","null","[[""img/square.png"",""img/square.png"",""img/square.png""],[0,""img/attention.png"",""img/square.png""],[""img/square.png"",0,0]]","","","","","null","","","","","","","","","",""
"vsl-grid-attention-check","308","943696","0.0-5.0-9.0-0.8-0.8","","null","[[""img/square.png"",""img/square.png"",""img/square.png""],[""img/square.png"",""img/attention.png"",0],[0,""img/square.png"",0]]","","","","","null","","","","","","","","","",""
"vsl-grid-attention-check","309","946711","0.0-5.0-9.0-0.9-0.9","","null","[[""img/square.png"",""img/square.png"",""img/square.png""],[""img/square.png"",""img/attention.png"",0],[""img/square.png"",0,0]]","","","","","null","","","","","","","","","",""
"vsl-grid-attention-check","310","949349","0.0-5.0-9.0-0.10-0.10","","2636.5","[[""img/square.png"",""img/square.png"",0],[0,""img/attention.png"",""img/square.png""],[""img/square.png"",0,""img/square.png""]]","","","","","32","","","","","","","","","",""
"html-keyboard-response","311","950364","0.0-5.0-9.0-1.0","","null"," ","","","","","null","","","","","","","","","",""
"vsl-grid-scene-snap","312","952379","0.0-5.0-10.0-0.0","","","[[0,""img/obj5.png"",""img/obj6.png""],[0,""img/obj9.png"",""img/obj11.png""],[""img/obj2.png"",0,""img/obj1.png""]]","","","3,2,2,2,1,3,2,2,5","121","","","","","","","","","","",""
"vsl-grid-scene-snap","313","955402","0.0-5.0-10.0-1.0","","","[[""img/obj7.png"",""img/obj4.png"",""img/obj3.png""],[""img/obj10.png"",""img/obj9.png"",0],[""img/obj2.png"",0,0]]","","","1,1,1,2,1,4,2,2,5","6","","","","","","","","","","",""
"vsl-grid-scene-snap","314","958420","0.0-5.0-10.0-2.0","","","[[0,""img/obj8.png"",0],[""img/obj7.png"",0,""img/obj12.png""],[""img/obj10.png"",""img/obj4.png"",""img/obj3.png""]]","","","1,2,1,2,3,4,2,1,6","54","","","","","","","","","","",""
"vsl-grid-scene-snap","315","961432","0.0-5.0-10.0-3.0","","","[[""img/obj5.png"",""img/obj6.png"",""img/obj9.png""],[0,""img/obj2.png"",""img/obj11.png""],[0,0,""img/obj1.png""]]","","","3,2,2,1,1,3,3,1,5","117","","","","","","","","","","",""
"vsl-grid-scene-snap","316","964445","0.0-5.0-10.0-4.0","","","[[0,""img/obj9.png"",0],[""img/obj2.png"",0,""img/obj7.png""],[""img/obj5.png"",""img/obj6.png"",""img/obj10.png""]]","","","3,2,1,1,3,3,2,1,5","132","","","","","","","","","","",""
"vsl-grid-scene-snap","317","967451","0.0-5.0-10.0-5.0","","","[[""img/obj4.png"",""img/obj3.png"",0],[""img/obj8.png"",0,""img/obj11.png""],[0,""img/obj12.png"",""img/obj1.png""]]","","","3,2,2,1,1,4,1,2,6","115","","","","","","","","","","",""
"vsl-grid-scene-snap","318","970474","0.0-5.0-10.0-6.0","","","[[0,0,""img/obj9.png""],[""img/obj7.png"",""img/obj2.png"",0],[""img/obj10.png"",""img/obj5.png"",""img/obj6.png""]]","","","1,2,1,2,3,3,3,1,5","48","","","","","","","","","","",""
"vsl-grid-scene-snap","319","973489","0.0-5.0-10.0-7.0","","","[[0,""img/obj5.png"",""img/obj6.png""],[""img/obj11.png"",""img/obj8.png"",0],[""img/obj1.png"",0,""img/obj12.png""]]","","","1,2,2,2,1,3,2,2,6","45","","","","","","","","","","",""
"vsl-grid-scene-snap","320","976508","0.0-5.0-10.0-8.0","","","[[""img/obj4.png"",""img/obj3.png"",0],[""img/obj8.png"",0,""img/obj7.png""],[0,""img/obj12.png"",""img/obj10.png""]]","","","3,2,1,1,1,4,1,2,6","114","","","","","","","","","","",""
"vsl-grid-scene-snap","321","979529","0.0-5.0-10.0-9.0","","","[[""img/obj8.png"",0,""img/obj7.png""],[0,""img/obj12.png"",""img/obj10.png""],[0,""img/obj4.png"",""img/obj3.png""]]","","","3,1,1,2,3,4,1,1,6","94","","","","","","","","","","",""
"vsl-grid-scene-snap","322","982543","0.0-5.0-10.0-10.0","","","[[""img/obj4.png"",""img/obj3.png"",""img/obj9.png""],[""img/obj7.png"",""img/obj2.png"",0],[""img/obj10.png"",0,0]]","","","1,2,1,1,1,4,3,1,5","66","","","","","","","","","","",""
"vsl-grid-scene-snap","323","985569","0.0-5.0-10.0-11.0","","","[[0,0,""img/obj7.png""],[0,""img/obj8.png"",""img/obj10.png""],[""img/obj5.png"",""img/obj6.png"",""img/obj12.png""]]","","","3,1,1,1,3,3,2,2,6","104","","","","","","","","","","",""
"vsl-grid-scene-snap","324","988598","0.0-5.0-10.0-12.0","","","[[0,""img/obj4.png"",""img/obj3.png""],[""img/obj7.png"",0,""img/obj9.png""],[""img/obj10.png"",""img/obj2.png"",0]]","","","1,2,1,2,1,4,3,2,5","38","","","","","","","","","","",""
"vsl-grid-scene-snap","325","991614","0.0-5.0-10.0-13.0","","","[[""img/obj8.png"",""img/obj5.png"",""img/obj6.png""],[""img/obj7.png"",""img/obj12.png"",0],[""img/obj10.png"",0,0]]","","","1,2,1,2,1,3,1,1,6","40","","","","","","","","","","",""
"vsl-grid-scene-snap","326","994633","0.0-5.0-10.0-14.0","","","[[""img/obj8.png"",0,0],[0,""img/obj12.png"",""img/obj7.png""],[""img/obj4.png"",""img/obj3.png"",""img/obj10.png""]]","","","3,2,1,1,3,4,1,1,6","138","","","","","","","","","","",""
"vsl-grid-scene-snap","327","997651","0.0-5.0-10.0-15.0","","","[[""img/obj8.png"",0,0],[""img/obj7.png"",""img/obj12.png"",0],[""img/obj10.png"",""img/obj4.png"",""img/obj3.png""]]","","","1,2,1,2,3,4,1,1,6","58","","","","","","","","","","",""
"vsl-grid-scene-snap","328","1000668","0.0-5.0-10.0-16.0","","","[[""img/obj8.png"",0,""img/obj11.png""],[0,""img/obj12.png"",""img/obj1.png""],[""img/obj5.png"",""img/obj6.png"",0]]","","","3,1,2,1,3,3,1,1,6","101","","","","","","","","","","",""
"vsl-grid-scene-snap","329","1003677","0.0-5.0-10.0-17.0","","","[[""img/obj4.png"",""img/obj3.png"",""img/obj11.png""],[0,""img/obj9.png"",""img/obj1.png""],[""img/obj2.png"",0,0]]","","","3,1,2,1,1,4,2,2,5","75","","","","","","","","","","",""
"vsl-grid-scene-snap","330","1006697","0.0-5.0-10.0-18.0","","","[[0,0,""img/obj7.png""],[0,""img/obj9.png"",""img/obj10.png""],[""img/obj2.png"",""img/obj4.png"",""img/obj3.png""]]","","","3,1,1,2,3,4,2,2,5","86","","","","","","","","","","",""
"vsl-grid-scene-snap","331","1009712","0.0-5.0-10.0-19.0","","","[[""img/obj8.png"",0,0],[""img/obj11.png"",""img/obj12.png"",0],[""img/obj1.png"",""img/obj4.png"",""img/obj3.png""]]","","","1,2,2,2,3,4,1,1,6","59","","","","","","","","","","",""
"vsl-grid-scene-snap","332","1012723","0.0-5.0-10.0-20.0","","","[[""img/obj8.png"",""img/obj4.png"",""img/obj3.png""],[0,""img/obj12.png"",""img/obj7.png""],[0,0,""img/obj10.png""]]","","","3,2,1,2,1,4,1,1,6","130","","","","","","","","","","",""
"vsl-grid-scene-snap","333","1015731","0.0-5.0-10.0-21.0","","","[[0,0,""img/obj7.png""],[0,""img/obj8.png"",""img/obj10.png""],[""img/obj4.png"",""img/obj3.png"",""img/obj12.png""]]","","","3,1,1,1,3,4,2,2,6","106","","","","","","","","","","",""
"vsl-grid-scene-snap","334","1018743","0.0-5.0-10.0-22.0","","","[[""img/obj8.png"",""img/obj4.png"",""img/obj3.png""],[""img/obj7.png"",""img/obj12.png"",0],[""img/obj10.png"",0,0]]","","","1,2,1,2,1,4,1,1,6","42","","","","","","","","","","",""
"vsl-grid-scene-snap","335","1021754","0.0-5.0-10.0-23.0","","","[[""img/obj7.png"",0,""img/obj9.png""],[""img/obj10.png"",""img/obj2.png"",0],[""img/obj5.png"",""img/obj6.png"",0]]","","","1,1,1,1,3,3,3,1,5","24","","","","","","","","","","",""
"vsl-grid-scene-snap","336","1024772","0.0-5.0-10.0-24.0","","","[[""img/obj4.png"",""img/obj3.png"",0],[""img/obj11.png"",""img/obj8.png"",0],[""img/obj1.png"",0,""img/obj12.png""]]","","","1,2,2,1,1,4,2,2,6","71","","","","","","","","","","",""
"vsl-grid-scene-snap","337","1027798","0.0-5.0-10.0-25.0","","","[[""img/obj5.png"",""img/obj6.png"",0],[0,""img/obj9.png"",""img/obj11.png""],[""img/obj2.png"",0,""img/obj1.png""]]","","","3,2,2,1,1,3,2,2,5","109","","","","","","","","","","",""
"vsl-grid-scene-snap","338","1030813","0.0-5.0-10.0-26.0","","","[[""img/obj4.png"",""img/obj3.png"",""img/obj11.png""],[""img/obj8.png"",0,""img/obj1.png""],[0,""img/obj12.png"",0]]","","","3,1,2,1,1,4,1,2,6","79","","","","","","","","","","",""
"vsl-grid-scene-snap","339","1033827","0.0-5.0-10.0-27.0","","","[[0,""img/obj4.png"",""img/obj3.png""],[""img/obj11.png"",0,""img/obj9.png""],[""img/obj1.png"",""img/obj2.png"",0]]","","","1,2,2,2,1,4,3,2,5","39","","","","","","","","","","",""
"vsl-grid-scene-snap","340","1036845","0.0-5.0-10.0-28.0","","","[[""img/obj5.png"",""img/obj6.png"",0],[""img/obj11.png"",0,""img/obj9.png""],[""img/obj1.png"",""img/obj2.png"",0]]","","","1,2,2,1,1,3,3,2,5","61","","","","","","","","","","",""
"vsl-grid-scene-snap","341","1039859","0.0-5.0-10.0-29.0","","","[[0,""img/obj9.png"",0],[""img/obj2.png"",0,""img/obj11.png""],[""img/obj5.png"",""img/obj6.png"",""img/obj1.png""]]","","","3,2,2,1,3,3,2,1,5","133","","","","","","","","","","",""
"vsl-grid-scene-snap","342","1042869","0.0-5.0-10.0-30.0","","","[[0,""img/obj8.png"",0],[""img/obj7.png"",0,""img/obj12.png""],[""img/obj10.png"",""img/obj5.png"",""img/obj6.png""]]","","","1,2,1,2,3,3,2,1,6","52","","","","","","","","","","",""
"vsl-grid-scene-snap","343","1045899","0.0-5.0-10.0-31.0","","","[[0,""img/obj9.png"",""img/obj7.png""],[""img/obj2.png"",0,""img/obj10.png""],[0,""img/obj4.png"",""img/obj3.png""]]","","","3,1,1,2,3,4,2,1,5","90","","","","","","","","","","",""
"vsl-grid-scene-snap","344","1048918","0.0-5.0-10.0-32.0","","","[[""img/obj8.png"",""img/obj4.png"",""img/obj3.png""],[""img/obj11.png"",""img/obj12.png"",0],[""img/obj1.png"",0,0]]","","","1,2,2,2,1,4,1,1,6","43","","","","","","","","","","",""
"vsl-grid-scene-snap","345","1051937","0.0-5.0-10.0-33.0","","","[[""img/obj8.png"",0,0],[""img/obj7.png"",""img/obj12.png"",0],[""img/obj10.png"",""img/obj5.png"",""img/obj6.png""]]","","","1,2,1,2,3,3,1,1,6","56","","","","","","","","","","",""
"vsl-grid-scene-snap","346","1054947","0.0-5.0-10.0-34.0","","","[[""img/obj7.png"",""img/obj8.png"",0],[""img/obj10.png"",0,""img/obj12.png""],[""img/obj4.png"",""img/obj3.png"",0]]","","","1,1,1,1,3,4,2,1,6","30","","","","","","","","","","",""
"vsl-grid-scene-snap","347","1057951","0.0-5.0-10.0-35.0","","","[[0,0,""img/obj7.png""],[0,""img/obj9.png"",""img/obj10.png""],[""img/obj2.png"",""img/obj5.png"",""img/obj6.png""]]","","","3,1,1,2,3,3,2,2,5","84","","","","","","","","","","",""
"vsl-grid-scene-snap","348","1060962","0.0-5.0-10.0-36.0","","","[[""img/obj5.png"",""img/obj6.png"",0],[0,""img/obj9.png"",""img/obj7.png""],[""img/obj2.png"",0,""img/obj10.png""]]","","","3,2,1,1,1,3,2,2,5","108","","","","","","","","","","",""
"vsl-grid-scene-snap","349","1063965","0.0-5.0-10.0-37.0","","","[[0,""img/obj4.png"",""img/obj3.png""],[0,""img/obj9.png"",""img/obj11.png""],[""img/obj2.png"",0,""img/obj1.png""]]","","","3,2,2,2,1,4,2,2,5","123","","","","","","","","","","",""
"vsl-grid-scene-snap","350","1066983","0.0-5.0-10.0-38.0","","","[[""img/obj5.png"",""img/obj6.png"",""img/obj11.png""],[""img/obj8.png"",0,""img/obj1.png""],[0,""img/obj12.png"",0]]","","","3,1,2,1,1,3,1,2,6","77","","","","","","","","","","",""
"vsl-grid-scene-snap","351","1069995","0.0-5.0-10.0-39.0","","","[[""img/obj8.png"",0,""img/obj11.png""],[0,""img/obj12.png"",""img/obj1.png""],[""img/obj4.png"",""img/obj3.png"",0]]","","","3,1,2,1,3,4,1,1,6","103","","","","","","","","","","",""
"vsl-grid-scene-snap","352","1073010","0.0-5.0-10.0-40.0","","","[[0,""img/obj9.png"",""img/obj11.png""],[""img/obj2.png"",0,""img/obj1.png""],[0,""img/obj4.png"",""img/obj3.png""]]","","","3,1,2,2,3,4,2,1,5","91","","","","","","","","","","",""
"vsl-grid-scene-snap","353","1076026","0.0-5.0-10.0-41.0","","","[[""img/obj4.png"",""img/obj3.png"",0],[""img/obj11.png"",0,""img/obj9.png""],[""img/obj1.png"",""img/obj2.png"",0]]","","","1,2,2,1,1,4,3,2,5","63","","","","","","","","","","",""
"vsl-grid-scene-snap","354","1079054","0.0-5.0-10.0-42.0","","","[[""img/obj8.png"",""img/obj5.png"",""img/obj6.png""],[0,""img/obj12.png"",""img/obj11.png""],[0,0,""img/obj1.png""]]","","","3,2,2,2,1,3,1,1,6","129","","","","","","","","","","",""
"vsl-grid-scene-snap","355","1082071","0.0-5.0-10.0-43.0","","","[[""img/obj11.png"",0,0],[""img/obj1.png"",""img/obj8.png"",0],[""img/obj4.png"",""img/obj3.png"",""img/obj12.png""]]","","","1,1,2,1,3,4,2,2,6","35","","","","","","","","","","",""
"vsl-grid-scene-snap","356","1085090","0.0-5.0-10.0-44.0","","","[[0,0,""img/obj11.png""],[0,""img/obj9.png"",""img/obj1.png""],[""img/obj2.png"",""img/obj4.png"",""img/obj3.png""]]","","","3,1,2,2,3,4,2,2,5","87","","","","","","","","","","",""
"vsl-grid-scene-snap","357","1088114","0.0-5.0-10.0-45.0","","","[[""img/obj5.png"",""img/obj6.png"",""img/obj11.png""],[0,""img/obj8.png"",""img/obj1.png""],[0,0,""img/obj12.png""]]","","","3,1,2,1,1,3,2,2,6","81","","","","","","","","","","",""
"vsl-grid-scene-snap","358","1091118","0.0-5.0-10.0-46.0","","","[[0,0,""img/obj11.png""],[0,""img/obj9.png"",""img/obj1.png""],[""img/obj2.png"",""img/obj5.png"",""img/obj6.png""]]","","","3,1,2,2,3,3,2,2,5","85","","","","","","","","","","",""
"vsl-grid-scene-snap","359","1094140","0.0-5.0-10.0-47.0","","","[[0,""img/obj4.png"",""img/obj3.png""],[""img/obj7.png"",""img/obj8.png"",0],[""img/obj10.png"",0,""img/obj12.png""]]","","","1,2,1,2,1,4,2,2,6","46","","","","","","","","","","",""
"html-keyboard-response","360","1096151","0.0-6.0-0.0","","null","<p>Your practice session is now over.</p><p>The test session will start in 2 minutes.<p><p>You can use these two minutes to relaxe your eyes.</p><p> <br> </p><p>Seconds remaining:</p><p> <br> </p>120","","","","","null","","","","","","","","","",""
"html-keyboard-response","361","1097153","0.0-6.0-1.0","","null","<p>Your practice session is now over.</p><p>The test session will start in 2 minutes.<p><p>You can use these two minutes to relaxe your eyes.</p><p> <br> </p><p>Seconds remaining:</p><p> <br> </p>119","","","","","null","","","","","","","","","",""
"html-keyboard-response","362","1098162","0.0-6.0-2.0","","null","<p>Your practice session is now over.</p><p>The test session will start in 2 minutes.<p><p>You can use these two minutes to relaxe your eyes.</p><p> <br> </p><p>Seconds remaining:</p><p> <br> </p>118","","","","","null","","","","","","","","","",""
"html-keyboard-response","363","1099172","0.0-6.0-3.0","","null","<p>Your practice session is now over.</p><p>The test session will start in 2 minutes.<p><p>You can use these two minutes to relaxe your eyes.</p><p> <br> </p><p>Seconds remaining:</p><p> <br> </p>117","","","","","null","","","","","","","","","",""
"html-keyboard-response","364","1100177","0.0-6.0-4.0","","null","<p>Your practice session is now over.</p><p>The test session will start in 2 minutes.<p><p>You can use these two minutes to relaxe your eyes.</p><p> <br> </p><p>Seconds remaining:</p><p> <br> </p>116","","","","","null","","","","","","","","","",""
"html-keyboard-response","365","1101186","0.0-6.0-5.0","","null","<p>Your practice session is now over.</p><p>The test session will start in 2 minutes.<p><p>You can use these two minutes to relaxe your eyes.</p><p> <br> </p><p>Seconds remaining:</p><p> <br> </p>115","","","","","null","","","","","","","","","",""
"html-keyboard-response","366","1102197","0.0-6.0-6.0","","null","<p>Your practice session is now over.</p><p>The test session will start in 2 minutes.<p><p>You can use these two minutes to relaxe your eyes.</p><p> <br> </p><p>Seconds remaining:</p><p> <br> </p>114","","","","","null","","","","","","","","","",""
"html-keyboard-response","367","1103207","0.0-6.0-7.0","","null","<p>Your practice session is now over.</p><p>The test session will start in 2 minutes.<p><p>You can use these two minutes to relaxe your eyes.</p><p> <br> </p><p>Seconds remaining:</p><p> <br> </p>113","","","","","null","","","","","","","","","",""
"html-keyboard-response","368","1104210","0.0-6.0-8.0","","null","<p>Your practice session is now over.</p><p>The test session will start in 2 minutes.<p><p>You can use these two minutes to relaxe your eyes.</p><p> <br> </p><p>Seconds remaining:</p><p> <br> </p>112","","","","","null","","","","","","","","","",""
"html-keyboard-response","369","1105211","0.0-6.0-9.0","","null","<p>Your practice session is now over.</p><p>The test session will start in 2 minutes.<p><p>You can use these two minutes to relaxe your eyes.</p><p> <br> </p><p>Seconds remaining:</p><p> <br> </p>111","","","","","null","","","","","","","","","",""
"html-keyboard-response","370","1106219","0.0-6.0-10.0","","null","<p>Your practice session is now over.</p><p>The test session will start in 2 minutes.<p><p>You can use these two minutes to relaxe your eyes.</p><p> <br> </p><p>Seconds remaining:</p><p> <br> </p>110","","","","","null","","","","","","","","","",""
"html-keyboard-response","371","1107230","0.0-6.0-11.0","","null","<p>Your practice session is now over.</p><p>The test session will start in 2 minutes.<p><p>You can use these two minutes to relaxe your eyes.</p><p> <br> </p><p>Seconds remaining:</p><p> <br> </p>109","","","","","null","","","","","","","","","",""
"html-keyboard-response","372","1108244","0.0-6.0-12.0","","null","<p>Your practice session is now over.</p><p>The test session will start in 2 minutes.<p><p>You can use these two minutes to relaxe your eyes.</p><p> <br> </p><p>Seconds remaining:</p><p> <br> </p>108","","","","","null","","","","","","","","","",""
"html-keyboard-response","373","1109247","0.0-6.0-13.0","","null","<p>Your practice session is now over.</p><p>The test session will start in 2 minutes.<p><p>You can use these two minutes to relaxe your eyes.</p><p> <br> </p><p>Seconds remaining:</p><p> <br> </p>107","","","","","null","","","","","","","","","",""
"html-keyboard-response","374","1110254","0.0-6.0-14.0","","null","<p>Your practice session is now over.</p><p>The test session will start in 2 minutes.<p><p>You can use these two minutes to relaxe your eyes.</p><p> <br> </p><p>Seconds remaining:</p><p> <br> </p>106","","","","","null","","","","","","","","","",""
"html-keyboard-response","375","1111262","0.0-6.0-15.0","","null","<p>Your practice session is now over.</p><p>The test session will start in 2 minutes.<p><p>You can use these two minutes to relaxe your eyes.</p><p> <br> </p><p>Seconds remaining:</p><p> <br> </p>105","","","","","null","","","","","","","","","",""
"html-keyboard-response","376","1112271","0.0-6.0-16.0","","null","<p>Your practice session is now over.</p><p>The test session will start in 2 minutes.<p><p>You can use these two minutes to relaxe your eyes.</p><p> <br> </p><p>Seconds remaining:</p><p> <br> </p>104","","","","","null","","","","","","","","","",""
"html-keyboard-response","377","1113280","0.0-6.0-17.0","","null","<p>Your practice session is now over.</p><p>The test session will start in 2 minutes.<p><p>You can use these two minutes to relaxe your eyes.</p><p> <br> </p><p>Seconds remaining:</p><p> <br> </p>103","","","","","null","","","","","","","","","",""
"html-keyboard-response","378","1114283","0.0-6.0-18.0","","null","<p>Your practice session is now over.</p><p>The test session will start in 2 minutes.<p><p>You can use these two minutes to relaxe your eyes.</p><p> <br> </p><p>Seconds remaining:</p><p> <br> </p>102","","","","","null","","","","","","","","","",""
"html-keyboard-response","379","1115292","0.0-6.0-19.0","","null","<p>Your practice session is now over.</p><p>The test session will start in 2 minutes.<p><p>You can use these two minutes to relaxe your eyes.</p><p> <br> </p><p>Seconds remaining:</p><p> <br> </p>101","","","","","null","","","","","","","","","",""
"html-keyboard-response","380","1116301","0.0-6.0-20.0","","null","<p>Your practice session is now over.</p><p>The test session will start in 2 minutes.<p><p>You can use these two minutes to relaxe your eyes.</p><p> <br> </p><p>Seconds remaining:</p><p> <br> </p>100","","","","","null","","","","","","","","","",""
"html-keyboard-response","381","1117315","0.0-6.0-21.0","","null","<p>Your practice session is now over.</p><p>The test session will start in 2 minutes.<p><p>You can use these two minutes to relaxe your eyes.</p><p> <br> </p><p>Seconds remaining:</p><p> <br> </p>99","","","","","null","","","","","","","","","",""
"html-keyboard-response","382","1118331","0.0-6.0-22.0","","null","<p>Your practice session is now over.</p><p>The test session will start in 2 minutes.<p><p>You can use these two minutes to relaxe your eyes.</p><p> <br> </p><p>Seconds remaining:</p><p> <br> </p>98","","","","","null","","","","","","","","","",""
"html-keyboard-response","383","1119336","0.0-6.0-23.0","","null","<p>Your practice session is now over.</p><p>The test session will start in 2 minutes.<p><p>You can use these two minutes to relaxe your eyes.</p><p> <br> </p><p>Seconds remaining:</p><p> <br> </p>97","","","","","null","","","","","","","","","",""
"html-keyboard-response","384","1120342","0.0-6.0-24.0","","null","<p>Your practice session is now over.</p><p>The test session will start in 2 minutes.<p><p>You can use these two minutes to relaxe your eyes.</p><p> <br> </p><p>Seconds remaining:</p><p> <br> </p>96","","","","","null","","","","","","","","","",""
"html-keyboard-response","385","1121347","0.0-6.0-25.0","","null","<p>Your practice session is now over.</p><p>The test session will start in 2 minutes.<p><p>You can use these two minutes to relaxe your eyes.</p><p> <br> </p><p>Seconds remaining:</p><p> <br> </p>95","","","","","null","","","","","","","","","",""
"html-keyboard-response","386","1122351","0.0-6.0-26.0","","null","<p>Your practice session is now over.</p><p>The test session will start in 2 minutes.<p><p>You can use these two minutes to relaxe your eyes.</p><p> <br> </p><p>Seconds remaining:</p><p> <br> </p>94","","","","","null","","","","","","","","","",""
"html-keyboard-response","387","1123355","0.0-6.0-27.0","","null","<p>Your practice session is now over.</p><p>The test session will start in 2 minutes.<p><p>You can use these two minutes to relaxe your eyes.</p><p> <br> </p><p>Seconds remaining:</p><p> <br> </p>93","","","","","null","","","","","","","","","",""
"html-keyboard-response","388","1124358","0.0-6.0-28.0","","null","<p>Your practice session is now over.</p><p>The test session will start in 2 minutes.<p><p>You can use these two minutes to relaxe your eyes.</p><p> <br> </p><p>Seconds remaining:</p><p> <br> </p>92","","","","","null","","","","","","","","","",""
"html-keyboard-response","389","1125362","0.0-6.0-29.0","","null","<p>Your practice session is now over.</p><p>The test session will start in 2 minutes.<p><p>You can use these two minutes to relaxe your eyes.</p><p> <br> </p><p>Seconds remaining:</p><p> <br> </p>91","","","","","null","","","","","","","","","",""
"html-keyboard-response","390","1126366","0.0-6.0-30.0","","null","<p>Your practice session is now over.</p><p>The test session will start in 2 minutes.<p><p>You can use these two minutes to relaxe your eyes.</p><p> <br> </p><p>Seconds remaining:</p><p> <br> </p>90","","","","","null","","","","","","","","","",""
