"trial_type","trial_index","time_elapsed","internal_node_id","success","rt","stimulus","response","test_part","correct_response","test_number","test_scene","patternsize","true_test","correct","subject","image_switchboard"
"pavlovia","0","1764","0.0-0.0","","","","","","","","","","","","",""
"fullscreen","1","13192","0.0-1.0","true","10414","","","","","","","","","","",""
"html-button-response","2","28756","0.0-2.0","","15561","<p style=""text-align: justify;margin-left: 15%; margin-right:15%"">You are participating in an experiment at the Vision Lab of the Department of Cognitive Science, Central European University.  One of our main questions is what kind of representations we can create about our visual environment and how these representations influence our behavior. At our lab we use multiple methods, for example behavioral experiments and computational models. In this experiment you will observe scenes consisting of abstract shapes and answer simple questions about them. <br><br>At the beginning and throughout the experiment you will receive precise information about what to do. The experiment takes about 25 minutes in total. <br><br>The test is voluntary, and you can withdraw your participation at any time. We treat your personal information confidentially. <br>Only those people who work on this research project have access to your data. We will work with group level statistics. We will only report the results of the group in scientific publications and conferences. This research was approved by the Hungarian Psychological Research Ethics Committee.<br><br>If you have any further questions about the study, you can contact the experimenter, Beata Tunde Szabo, PhD Student. Contact: 1051 Nador u. 11. E-mail: szabo_beata-tunde@phd.ceu.edu <br><br>By pressing the button below you indicate that you read this information, found it sufficent, and you consent to participate in the experiment. <br><br> </p>","0","","","","","","","","",""
"survey-html-form","3","41977","0.0-3.0","","13219","","{""Age"":""22"",""gender"":""Female"",""gender_other"":""""}","","","","","","","","",""
"html-button-response","4","59019","0.0-4.0","","17046","<p style=""text-align: justify;margin-left: 15%; margin-right:15%""> This is your practice session. You will see a checkerboard with random simple shapes appearing in different positions in the checkerboard. Your task is simply to observe the patterns so that you would be able to answer some questions about the sequence after the practice session.  The session will last for about 13 minutes.  Please, pay attention to EACH display! <br><br>Occasionally, there will be an attention check asking you to press the spacebar. ","0","","","","","","","","",""
"vsl-grid-scene-snap","5","61033","0.0-5.0-0.0-0.0","","","[[0,0,0,0,0],[0,""img/obj9.png"",0,0,""img/obj5.png""],[0,0,""img/obj2.png"",""img/obj11.png"",0],[0,""img/obj6.png"",""img/obj8.png"",0,0],[0,0,0,0,0]]","","","","","","","","","",""
"vsl-grid-scene-snap","6","64046","0.0-5.0-0.0-1.0","","","[[0,0,0,0,""img/obj5.png""],[0,0,""img/obj7.png"",""img/obj11.png"",0],[0,""img/obj10.png"",""img/obj8.png"",0,0],[0,0,""img/obj4.png"",0,0],[0,0,0,0,0]]","","","","","","","","","",""
"vsl-grid-scene-snap","7","67060","0.0-5.0-0.0-2.0","","","[[0,0,0,0,0],[0,""img/obj1.png"",0,0,0],[0,""img/obj9.png"",""img/obj3.png"",0,0],[0,0,""img/obj2.png"",""img/obj12.png"",0],[0,""img/obj6.png"",0,0,0]]","","","","","","","","","",""
"vsl-grid-scene-snap","8","70084","0.0-5.0-0.0-3.0","","","[[0,0,0,0,0],[""img/obj9.png"",0,0,0,0],[""img/obj1.png"",""img/obj2.png"",0,0,0],[""img/obj6.png"",""img/obj3.png"",0,0,0],[0,0,""img/obj12.png"",0,0]]","","","","","","","","","",""
"vsl-grid-scene-snap","9","73108","0.0-5.0-0.0-4.0","","","[[0,0,""img/obj9.png"",0,0],[0,0,0,""img/obj2.png"",""img/obj5.png""],[0,0,""img/obj6.png"",""img/obj11.png"",0],[0,0,""img/obj8.png"",0,0],[0,0,0,0,0]]","","","","","","","","","",""
"vsl-grid-scene-snap","10","76118","0.0-5.0-0.0-5.0","","","[[0,0,0,0,0],[0,""img/obj1.png"",0,0,""img/obj7.png""],[0,0,""img/obj3.png"",""img/obj10.png"",0],[0,0,0,""img/obj12.png"",""img/obj4.png""],[0,0,0,0,0]]","","","","","","","","","",""
"vsl-grid-scene-snap","11","79138","0.0-5.0-0.0-6.0","","","[[0,0,0,0,0],[0,0,""img/obj1.png"",""img/obj5.png"",0],[0,0,""img/obj11.png"",""img/obj3.png"",0],[0,""img/obj8.png"",0,0,""img/obj12.png""],[0,0,0,0,0]]","","","","","","","","","",""
"vsl-grid-scene-snap","12","82152","0.0-5.0-0.0-7.0","","","[[0,0,0,""img/obj9.png"",0],[0,0,0,0,""img/obj2.png""],[0,0,0,""img/obj6.png"",""img/obj5.png""],[0,0,0,""img/obj11.png"",0],[0,0,""img/obj8.png"",0,0]]","","","","","","","","","",""
"vsl-grid-scene-snap","13","85156","0.0-5.0-0.0-8.0","","","[[0,0,""img/obj7.png"",0,0],[0,""img/obj10.png"",""img/obj9.png"",0,0],[0,0,""img/obj4.png"",""img/obj2.png"",0],[0,0,""img/obj6.png"",0,0],[0,0,0,0,0]]","","","","","","","","","",""
"vsl-grid-scene-snap","14","88161","0.0-5.0-0.0-9.0","","","[[0,""img/obj9.png"",0,0,0],[0,0,""img/obj2.png"",0,0],[0,""img/obj6.png"",""img/obj5.png"",0,0],[0,""img/obj11.png"",0,0,0],[""img/obj8.png"",0,0,0,0]]","","","","","","","","","",""
"vsl-grid-scene-snap","15","91168","0.0-5.0-0.0-10.0","","","[[0,0,0,""img/obj5.png"",0],[0,0,""img/obj11.png"",0,0],[0,""img/obj8.png"",""img/obj7.png"",0,0],[0,""img/obj10.png"",0,0,0],[0,0,""img/obj4.png"",0,0]]","","","","","","","","","",""
"vsl-grid-scene-snap","16","94185","0.0-5.0-0.0-11.0","","","[[0,0,0,0,0],[0,""img/obj9.png"",0,0,0],[0,""img/obj1.png"",""img/obj2.png"",0,0],[0,""img/obj6.png"",""img/obj3.png"",0,0],[0,0,0,""img/obj12.png"",0]]","","","","","","","","","",""
"vsl-grid-scene-snap","17","97214","0.0-5.0-0.0-12.0","","","[[0,0,0,0,0],[0,0,0,""img/obj9.png"",0],[0,0,0,""img/obj5.png"",""img/obj2.png""],[0,0,""img/obj11.png"",""img/obj6.png"",0],[0,""img/obj8.png"",0,0,0]]","","","","","","","","","",""
"vsl-grid-scene-snap","18","100233","0.0-5.0-0.0-13.0","","","[[0,""img/obj1.png"",0,0,0],[0,0,""img/obj3.png"",0,0],[0,0,""img/obj9.png"",""img/obj12.png"",0],[0,0,0,""img/obj2.png"",0],[0,0,""img/obj6.png"",0,0]]","","","","","","","","","",""
"vsl-grid-scene-snap","19","103249","0.0-5.0-0.0-14.0","","","[[0,0,0,0,0],[0,""img/obj1.png"",""img/obj7.png"",0,0],[0,""img/obj10.png"",""img/obj3.png"",0,0],[0,0,""img/obj4.png"",""img/obj12.png"",0],[0,0,0,0,0]]","","","","","","","","","",""
"vsl-grid-scene-snap","20","106278","0.0-5.0-0.0-15.0","","","[[0,0,0,0,0],[0,0,""img/obj5.png"",""img/obj7.png"",0],[0,""img/obj11.png"",""img/obj10.png"",0,0],[""img/obj8.png"",0,0,""img/obj4.png"",0],[0,0,0,0,0]]","","","","","","","","","",""
"vsl-grid-scene-snap","21","109294","0.0-5.0-0.0-16.0","","","[[0,""img/obj9.png"",0,0,0],[0,0,""img/obj2.png"",""img/obj7.png"",0],[0,""img/obj6.png"",""img/obj10.png"",0,0],[0,0,0,""img/obj4.png"",0],[0,0,0,0,0]]","","","","","","","","","",""
"vsl-grid-scene-snap","22","112301","0.0-5.0-0.0-17.0","","","[[0,0,0,0,0],[0,0,0,""img/obj5.png"",0],[0,""img/obj1.png"",""img/obj11.png"",0,0],[0,""img/obj8.png"",""img/obj3.png"",0,0],[0,0,0,""img/obj12.png"",0]]","","","","","","","","","",""
"vsl-grid-scene-snap","23","115321","0.0-5.0-0.0-18.0","","","[[0,0,""img/obj5.png"",0,0],[0,""img/obj11.png"",0,0,0],[""img/obj8.png"",""img/obj7.png"",0,0,0],[""img/obj10.png"",0,0,0,0],[0,""img/obj4.png"",0,0,0]]","","","","","","","","","",""
"vsl-grid-scene-snap","24","118328","0.0-5.0-0.0-19.0","","","[[0,0,0,""img/obj5.png"",0],[0,0,""img/obj11.png"",""img/obj7.png"",0],[0,""img/obj8.png"",""img/obj10.png"",0,0],[0,0,0,""img/obj4.png"",0],[0,0,0,0,0]]","","","","","","","","","",""
"vsl-grid-scene-snap","25","121356","0.0-5.0-0.0-20.0","","","[[0,0,""img/obj7.png"",0,0],[""img/obj1.png"",""img/obj10.png"",0,0,0],[0,""img/obj3.png"",""img/obj4.png"",0,0],[0,0,""img/obj12.png"",0,0],[0,0,0,0,0]]","","","","","","","","","",""
"vsl-grid-scene-snap","26","124378","0.0-5.0-0.0-21.0","","","[[0,0,0,0,0],[0,""img/obj7.png"",0,0,0],[""img/obj10.png"",""img/obj1.png"",0,0,0],[0,""img/obj4.png"",""img/obj3.png"",0,0],[0,0,0,""img/obj12.png"",0]]","","","","","","","","","",""
"vsl-grid-scene-snap","27","127395","0.0-5.0-0.0-22.0","","","[[0,0,0,0,0],[0,0,0,""img/obj9.png"",0],[0,0,0,""img/obj7.png"",""img/obj2.png""],[0,0,""img/obj10.png"",""img/obj6.png"",0],[0,0,0,""img/obj4.png"",0]]","","","","","","","","","",""
"vsl-grid-scene-snap","28","130402","0.0-5.0-0.0-23.0","","","[[0,0,0,""img/obj5.png"",""img/obj7.png""],[0,0,""img/obj11.png"",""img/obj10.png"",0],[0,""img/obj8.png"",0,0,""img/obj4.png""],[0,0,0,0,0],[0,0,0,0,0]]","","","","","","","","","",""
"vsl-grid-scene-snap","29","133427","0.0-5.0-0.0-24.0","","","[[0,""img/obj1.png"",0,0,0],[0,0,""img/obj3.png"",""img/obj7.png"",0],[0,0,""img/obj10.png"",""img/obj12.png"",0],[0,0,0,""img/obj4.png"",0],[0,0,0,0,0]]","","","","","","","","","",""
"vsl-grid-scene-snap","30","136444","0.0-5.0-0.0-25.0","","","[[0,""img/obj1.png"",0,0,0],[0,""img/obj9.png"",""img/obj3.png"",0,0],[0,0,""img/obj2.png"",""img/obj12.png"",0],[0,""img/obj6.png"",0,0,0],[0,0,0,0,0]]","","","","","","","","","",""
"vsl-grid-scene-snap","31","139458","0.0-5.0-0.0-26.0","","","[[0,0,0,0,""img/obj5.png""],[0,0,0,""img/obj11.png"",0],[0,0,""img/obj8.png"",""img/obj7.png"",0],[0,0,""img/obj10.png"",0,0],[0,0,0,""img/obj4.png"",0]]","","","","","","","","","",""
"vsl-grid-scene-snap","32","142478","0.0-5.0-0.0-27.0","","","[[0,""img/obj9.png"",0,0,0],[0,""img/obj1.png"",""img/obj2.png"",0,0],[0,""img/obj6.png"",""img/obj3.png"",0,0],[0,0,0,""img/obj12.png"",0],[0,0,0,0,0]]","","","","","","","","","",""
"vsl-grid-scene-snap","33","145501","0.0-5.0-0.0-28.0","","","[[0,0,0,0,0],[0,0,0,""img/obj5.png"",0],[0,""img/obj7.png"",""img/obj11.png"",0,0],[""img/obj10.png"",""img/obj8.png"",0,0,0],[0,""img/obj4.png"",0,0,0]]","","","","","","","","","",""
"vsl-grid-scene-snap","34","148511","0.0-5.0-0.0-29.0","","","[[0,""img/obj9.png"",0,0,0],[0,0,""img/obj2.png"",""img/obj5.png"",0],[0,""img/obj6.png"",""img/obj11.png"",0,0],[0,""img/obj8.png"",0,0,0],[0,0,0,0,0]]","","","","","","","","","",""
"vsl-grid-scene-snap","35","151530","0.0-5.0-0.0-30.0","","","[[0,0,0,0,0],[0,""img/obj9.png"",""img/obj1.png"",0,0],[0,0,""img/obj2.png"",""img/obj3.png"",0],[0,""img/obj6.png"",0,0,""img/obj12.png""],[0,0,0,0,0]]","","","","","","","","","",""
"vsl-grid-scene-snap","36","154551","0.0-5.0-0.0-31.0","","","[[0,0,0,0,0],[0,""img/obj9.png"",""img/obj5.png"",0,0],[0,""img/obj11.png"",""img/obj2.png"",0,0],[""img/obj8.png"",""img/obj6.png"",0,0,0],[0,0,0,0,0]]","","","","","","","","","",""
"vsl-grid-scene-snap","37","157567","0.0-5.0-0.0-32.0","","","[[0,0,0,0,0],[0,0,""img/obj7.png"",""img/obj5.png"",0],[0,""img/obj10.png"",""img/obj11.png"",0,0],[0,""img/obj8.png"",""img/obj4.png"",0,0],[0,0,0,0,0]]","","","","","","","","","",""
"vsl-grid-scene-snap","38","160585","0.0-5.0-0.0-33.0","","","[[""img/obj1.png"",0,0,0,0],[0,""img/obj3.png"",0,0,0],[0,""img/obj9.png"",""img/obj12.png"",0,0],[0,0,""img/obj2.png"",0,0],[0,""img/obj6.png"",0,0,0]]","","","","","","","","","",""
"vsl-grid-scene-snap","39","163593","0.0-5.0-0.0-34.0","","","[[0,0,0,0,0],[0,0,0,""img/obj5.png"",0],[0,0,""img/obj11.png"",""img/obj7.png"",0],[0,""img/obj8.png"",""img/obj10.png"",0,0],[0,0,0,""img/obj4.png"",0]]","","","","","","","","","",""
"vsl-grid-scene-snap","40","166610","0.0-5.0-0.0-35.0","","","[[0,0,0,0,0],[0,""img/obj1.png"",0,0,0],[0,0,""img/obj3.png"",""img/obj9.png"",0],[0,0,0,""img/obj12.png"",""img/obj2.png""],[0,0,0,""img/obj6.png"",0]]","","","","","","","","","",""
"vsl-grid-scene-snap","41","169630","0.0-5.0-0.0-36.0","","","[[0,0,0,0,0],[0,""img/obj7.png"",""img/obj5.png"",0,0],[""img/obj10.png"",""img/obj11.png"",0,0,0],[""img/obj8.png"",""img/obj4.png"",0,0,0],[0,0,0,0,0]]","","","","","","","","","",""
"vsl-grid-scene-snap","42","172654","0.0-5.0-0.0-37.0","","","[[0,0,0,""img/obj9.png"",0],[0,0,0,""img/obj5.png"",""img/obj2.png""],[0,0,""img/obj11.png"",""img/obj6.png"",0],[0,""img/obj8.png"",0,0,0],[0,0,0,0,0]]","","","","","","","","","",""
"vsl-grid-scene-snap","43","175669","0.0-5.0-0.0-38.0","","","[[0,0,0,0,0],[""img/obj9.png"",""img/obj1.png"",0,0,0],[0,""img/obj2.png"",""img/obj3.png"",0,0],[""img/obj6.png"",0,0,""img/obj12.png"",0],[0,0,0,0,0]]","","","","","","","","","",""
"vsl-grid-scene-snap","44","178675","0.0-5.0-0.0-39.0","","","[[0,0,0,0,0],[0,0,""img/obj1.png"",""img/obj7.png"",0],[0,0,""img/obj10.png"",""img/obj3.png"",0],[0,0,0,""img/obj4.png"",""img/obj12.png""],[0,0,0,0,0]]","","","","","","","","","",""
"vsl-grid-scene-snap","45","181686","0.0-5.0-0.0-40.0","","","[[0,0,""img/obj7.png"",""img/obj5.png"",0],[0,""img/obj10.png"",""img/obj11.png"",0,0],[0,""img/obj8.png"",""img/obj4.png"",0,0],[0,0,0,0,0],[0,0,0,0,0]]","","","","","","","","","",""
"vsl-grid-scene-snap","46","184704","0.0-5.0-0.0-41.0","","","[[0,0,0,0,0],[0,0,""img/obj5.png"",0,0],[0,""img/obj11.png"",""img/obj7.png"",0,0],[""img/obj8.png"",""img/obj10.png"",0,0,0],[0,0,""img/obj4.png"",0,0]]","","","","","","","","","",""
"vsl-grid-scene-snap","47","187729","0.0-5.0-0.0-42.0","","","[[0,0,0,0,0],[0,0,""img/obj7.png"",0,0],[0,""img/obj10.png"",""img/obj1.png"",0,0],[0,0,""img/obj4.png"",""img/obj3.png"",0],[0,0,0,0,""img/obj12.png""]]","","","","","","","","","",""
"vsl-grid-scene-snap","48","190740","0.0-5.0-0.0-43.0","","","[[0,0,0,0,0],[0,""img/obj1.png"",""img/obj9.png"",0,0],[0,0,""img/obj3.png"",""img/obj2.png"",0],[0,0,""img/obj6.png"",""img/obj12.png"",0],[0,0,0,0,0]]","","","","","","","","","",""
"vsl-grid-scene-snap","49","193747","0.0-5.0-0.0-44.0","","","[[0,0,0,0,0],[0,0,0,""img/obj5.png"",""img/obj7.png""],[0,0,""img/obj11.png"",""img/obj10.png"",0],[0,""img/obj8.png"",0,0,""img/obj4.png""],[0,0,0,0,0]]","","","","","","","","","",""
"vsl-grid-scene-snap","50","196764","0.0-5.0-0.0-45.0","","","[[0,0,0,0,0],[0,0,0,0,""img/obj7.png""],[0,0,0,""img/obj10.png"",""img/obj5.png""],[0,0,0,""img/obj11.png"",""img/obj4.png""],[0,0,""img/obj8.png"",0,0]]","","","","","","","","","",""
"vsl-grid-scene-snap","51","199780","0.0-5.0-0.0-46.0","","","[[0,0,0,0,0],[""img/obj1.png"",0,0,""img/obj7.png"",0],[0,""img/obj3.png"",""img/obj10.png"",0,0],[0,0,""img/obj12.png"",""img/obj4.png"",0],[0,0,0,0,0]]","","","","","","","","","",""
"vsl-grid-scene-snap","52","202796","0.0-5.0-0.0-47.0","","","[[0,0,0,0,0],[0,0,""img/obj1.png"",0,0],[0,0,""img/obj9.png"",""img/obj3.png"",0],[0,0,0,""img/obj2.png"",""img/obj12.png""],[0,0,""img/obj6.png"",0,0]]","","","","","","","","","",""
"vsl-grid-scene","53","206114","0.0-5.0-1.0-0.0-0.0","","2299",""," ","","","","","","","","",""
"html-keyboard-response","54","207132","0.0-5.0-1.0-1.0","","null"," ","null","","","","","","","","",""
"vsl-grid-scene-snap","55","209140","0.0-5.0-2.0-0.0","","","[[0,0,0,0,0],[""img/obj1.png"",""img/obj7.png"",0,0,0],[""img/obj10.png"",""img/obj3.png"",0,0,0],[0,""img/obj4.png"",""img/obj12.png"",0,0],[0,0,0,0,0]]","","","","","","","","","",""
"vsl-grid-scene-snap","56","212159","0.0-5.0-2.0-1.0","","","[[0,0,0,0,0],[0,0,0,0,0],[0,0,""img/obj7.png"",""img/obj5.png"",0],[0,""img/obj10.png"",""img/obj11.png"",0,0],[0,""img/obj8.png"",""img/obj4.png"",0,0]]","","","","","","","","","",""
"vsl-grid-scene-snap","57","215181","0.0-5.0-2.0-2.0","","","[[0,0,0,0,0],[""img/obj1.png"",0,0,""img/obj5.png"",0],[0,""img/obj3.png"",""img/obj11.png"",0,0],[0,""img/obj8.png"",""img/obj12.png"",0,0],[0,0,0,0,0]]","","","","","","","","","",""
"vsl-grid-scene-snap","58","218197","0.0-5.0-2.0-3.0","","","[[0,0,0,0,0],[0,0,""img/obj1.png"",""img/obj9.png"",0],[0,0,0,""img/obj3.png"",""img/obj2.png""],[0,0,0,""img/obj6.png"",""img/obj12.png""],[0,0,0,0,0]]","","","","","","","","","",""
"vsl-grid-scene-snap","59","221210","0.0-5.0-2.0-4.0","","","[[0,0,0,0,0],[0,0,""img/obj9.png"",0,0],[0,0,0,""img/obj2.png"",""img/obj5.png""],[0,0,""img/obj6.png"",""img/obj11.png"",0],[0,0,""img/obj8.png"",0,0]]","","","","","","","","","",""
"vsl-grid-scene-snap","60","224229","0.0-5.0-2.0-5.0","","","[[0,0,0,0,0],[0,""img/obj9.png"",0,0,0],[0,0,""img/obj2.png"",""img/obj7.png"",0],[0,""img/obj6.png"",""img/obj10.png"",0,0],[0,0,0,""img/obj4.png"",0]]","","","","","","","","","",""
"vsl-grid-scene-snap","61","227244","0.0-5.0-2.0-6.0","","","[[0,0,0,0,0],[0,0,0,""img/obj7.png"",""img/obj5.png""],[0,0,""img/obj10.png"",""img/obj11.png"",0],[0,0,""img/obj8.png"",""img/obj4.png"",0],[0,0,0,0,0]]","","","","","","","","","",""
"vsl-grid-scene-snap","62","230261","0.0-5.0-2.0-7.0","","","[[0,0,0,0,0],[0,""img/obj1.png"",0,0,0],[0,0,""img/obj3.png"",""img/obj5.png"",0],[0,0,""img/obj11.png"",""img/obj12.png"",0],[0,""img/obj8.png"",0,0,0]]","","","","","","","","","",""
"vsl-grid-scene-snap","63","233287","0.0-5.0-2.0-8.0","","","[[0,0,0,0,0],[0,0,0,0,0],[0,""img/obj1.png"",""img/obj7.png"",0,0],[0,""img/obj10.png"",""img/obj3.png"",0,0],[0,0,""img/obj4.png"",""img/obj12.png"",0]]","","","","","","","","","",""
"vsl-grid-scene-snap","64","236299","0.0-5.0-2.0-9.0","","","[[0,0,0,0,0],[0,0,0,""img/obj7.png"",0],[0,""img/obj1.png"",""img/obj10.png"",0,0],[0,0,""img/obj3.png"",""img/obj4.png"",0],[0,0,0,""img/obj12.png"",0]]","","","","","","","","","",""
"vsl-grid-scene-snap","65","239318","0.0-5.0-2.0-10.0","","","[[0,0,0,0,0],[0,""img/obj9.png"",0,0,0],[0,0,""img/obj2.png"",""img/obj5.png"",0],[0,""img/obj6.png"",""img/obj11.png"",0,0],[0,""img/obj8.png"",0,0,0]]","","","","","","","","","",""
"vsl-grid-scene-snap","66","242337","0.0-5.0-2.0-11.0","","","[[0,""img/obj1.png"",""img/obj5.png"",0,0],[0,""img/obj11.png"",""img/obj3.png"",0,0],[""img/obj8.png"",0,0,""img/obj12.png"",0],[0,0,0,0,0],[0,0,0,0,0]]","","","","","","","","","",""
"vsl-grid-scene-snap","67","245356","0.0-5.0-2.0-12.0","","","[[0,0,0,0,0],[0,0,0,""img/obj5.png"",0],[0,""img/obj9.png"",""img/obj11.png"",0,0],[0,""img/obj8.png"",""img/obj2.png"",0,0],[0,""img/obj6.png"",0,0,0]]","","","","","","","","","",""
"vsl-grid-scene-snap","68","248373","0.0-5.0-2.0-13.0","","","[[0,""img/obj7.png"",0,0,0],[""img/obj10.png"",""img/obj9.png"",0,0,0],[0,""img/obj4.png"",""img/obj2.png"",0,0],[0,""img/obj6.png"",0,0,0],[0,0,0,0,0]]","","","","","","","","","",""
"vsl-grid-scene-snap","69","251390","0.0-5.0-2.0-14.0","","","[[0,0,0,0,0],[0,0,""img/obj7.png"",0,0],[0,""img/obj10.png"",""img/obj9.png"",0,0],[0,0,""img/obj4.png"",""img/obj2.png"",0],[0,0,""img/obj6.png"",0,0]]","","","","","","","","","",""
"vsl-grid-scene-snap","70","254408","0.0-5.0-2.0-15.0","","","[[0,0,0,0,0],[0,0,""img/obj5.png"",0,0],[""img/obj1.png"",""img/obj11.png"",0,0,0],[""img/obj8.png"",""img/obj3.png"",0,0,0],[0,0,""img/obj12.png"",0,0]]","","","","","","","","","",""
"vsl-grid-scene-snap","71","257428","0.0-5.0-2.0-16.0","","","[[0,0,0,0,0],[0,""img/obj1.png"",""img/obj5.png"",0,0],[0,""img/obj11.png"",""img/obj3.png"",0,0],[""img/obj8.png"",0,0,""img/obj12.png"",0],[0,0,0,0,0]]","","","","","","","","","",""
"vsl-grid-scene-snap","72","260434","0.0-5.0-2.0-17.0","","","[[0,0,0,0,0],[0,0,0,0,""img/obj5.png""],[0,0,""img/obj7.png"",""img/obj11.png"",0],[0,""img/obj10.png"",""img/obj8.png"",0,0],[0,0,""img/obj4.png"",0,0]]","","","","","","","","","",""
"vsl-grid-scene-snap","73","263453","0.0-5.0-2.0-18.0","","","[[0,0,0,""img/obj7.png"",0],[0,0,""img/obj10.png"",0,0],[0,0,""img/obj1.png"",""img/obj4.png"",0],[0,0,0,""img/obj3.png"",0],[0,0,0,0,""img/obj12.png""]]","","","","","","","","","",""
"vsl-grid-scene-snap","74","266484","0.0-5.0-2.0-19.0","","","[[0,0,0,""img/obj7.png"",0],[0,""img/obj9.png"",""img/obj10.png"",0,0],[0,0,""img/obj2.png"",""img/obj4.png"",0],[0,""img/obj6.png"",0,0,0],[0,0,0,0,0]]","","","","","","","","","",""
"vsl-grid-scene-snap","75","269496","0.0-5.0-2.0-20.0","","","[[0,0,0,0,0],[0,""img/obj1.png"",0,0,""img/obj5.png""],[0,0,""img/obj3.png"",""img/obj11.png"",0],[0,0,""img/obj8.png"",""img/obj12.png"",0],[0,0,0,0,0]]","","","","","","","","","",""
"vsl-grid-scene-snap","76","272508","0.0-5.0-2.0-21.0","","","[[0,0,""img/obj5.png"",0,0],[""img/obj9.png"",""img/obj11.png"",0,0,0],[""img/obj8.png"",""img/obj2.png"",0,0,0],[""img/obj6.png"",0,0,0,0],[0,0,0,0,0]]","","","","","","","","","",""
"vsl-grid-scene-snap","77","275533","0.0-5.0-2.0-22.0","","","[[0,0,0,0,0],[0,0,0,0,0],[0,""img/obj1.png"",0,0,""img/obj5.png""],[0,0,""img/obj3.png"",""img/obj11.png"",0],[0,0,""img/obj8.png"",""img/obj12.png"",0]]","","","","","","","","","",""
"vsl-grid-scene-snap","78","278551","0.0-5.0-2.0-23.0","","","[[0,0,0,0,0],[0,0,0,0,0],[""img/obj9.png"",0,0,""img/obj5.png"",0],[0,""img/obj2.png"",""img/obj11.png"",0,0],[""img/obj6.png"",""img/obj8.png"",0,0,0]]","","","","","","","","","",""
"vsl-grid-scene-snap","79","281569","0.0-5.0-2.0-24.0","","","[[0,0,0,""img/obj5.png"",0],[0,""img/obj9.png"",""img/obj11.png"",0,0],[0,""img/obj8.png"",""img/obj2.png"",0,0],[0,""img/obj6.png"",0,0,0],[0,0,0,0,0]]","","","","","","","","","",""
"vsl-grid-scene-snap","80","284586","0.0-5.0-2.0-25.0","","","[[0,0,0,0,0],[""img/obj1.png"",""img/obj9.png"",0,0,0],[0,""img/obj3.png"",""img/obj2.png"",0,0],[0,""img/obj6.png"",""img/obj12.png"",0,0],[0,0,0,0,0]]","","","","","","","","","",""
"vsl-grid-scene-snap","81","287604","0.0-5.0-2.0-26.0","","","[[0,0,""img/obj7.png"",0,0],[0,""img/obj10.png"",0,0,0],[0,""img/obj1.png"",""img/obj4.png"",0,0],[0,0,""img/obj3.png"",0,0],[0,0,0,""img/obj12.png"",0]]","","","","","","","","","",""
"vsl-grid-scene-snap","82","290627","0.0-5.0-2.0-27.0","","","[[0,0,""img/obj5.png"",""img/obj7.png"",0],[0,""img/obj11.png"",""img/obj10.png"",0,0],[""img/obj8.png"",0,0,""img/obj4.png"",0],[0,0,0,0,0],[0,0,0,0,0]]","","","","","","","","","",""
"vsl-grid-scene-snap","83","293639","0.0-5.0-2.0-28.0","","","[[0,""img/obj7.png"",0,0,0],[""img/obj10.png"",0,0,0,0],[""img/obj1.png"",""img/obj4.png"",0,0,0],[0,""img/obj3.png"",0,0,0],[0,0,""img/obj12.png"",0,0]]","","","","","","","","","",""
"vsl-grid-scene-snap","84","296642","0.0-5.0-2.0-29.0","","","[[0,0,""img/obj7.png"",0,0],[0,""img/obj10.png"",""img/obj1.png"",0,0],[0,0,""img/obj4.png"",""img/obj3.png"",0],[0,0,0,0,""img/obj12.png""],[0,0,0,0,0]]","","","","","","","","","",""
"vsl-grid-scene-snap","85","299647","0.0-5.0-2.0-30.0","","","[[0,0,0,0,0],[0,0,""img/obj9.png"",0,0],[0,0,""img/obj5.png"",""img/obj2.png"",0],[0,""img/obj11.png"",""img/obj6.png"",0,0],[""img/obj8.png"",0,0,0,0]]","","","","","","","","","",""
"vsl-grid-scene-snap","86","302665","0.0-5.0-2.0-31.0","","","[[""img/obj9.png"",""img/obj1.png"",0,0,0],[0,""img/obj2.png"",""img/obj3.png"",0,0],[""img/obj6.png"",0,0,""img/obj12.png"",0],[0,0,0,0,0],[0,0,0,0,0]]","","","","","","","","","",""
"vsl-grid-scene-snap","87","305682","0.0-5.0-2.0-32.0","","","[[0,0,""img/obj9.png"",0,0],[0,0,0,""img/obj2.png"",0],[0,0,""img/obj6.png"",""img/obj5.png"",0],[0,0,""img/obj11.png"",0,0],[0,""img/obj8.png"",0,0,0]]","","","","","","","","","",""
"vsl-grid-scene-snap","88","308697","0.0-5.0-2.0-33.0","","","[[0,0,0,0,0],[0,0,0,0,0],[0,""img/obj1.png"",""img/obj9.png"",0,0],[0,0,""img/obj3.png"",""img/obj2.png"",0],[0,0,""img/obj6.png"",""img/obj12.png"",0]]","","","","","","","","","",""
"vsl-grid-scene-snap","89","311709","0.0-5.0-2.0-34.0","","","[[""img/obj1.png"",0,0,0,0],[0,""img/obj3.png"",""img/obj9.png"",0,0],[0,0,""img/obj12.png"",""img/obj2.png"",0],[0,0,""img/obj6.png"",0,0],[0,0,0,0,0]]","","","","","","","","","",""
"vsl-grid-scene-snap","90","314731","0.0-5.0-2.0-35.0","","","[[0,0,0,0,0],[0,0,0,0,0],[0,0,""img/obj9.png"",""img/obj5.png"",0],[0,0,""img/obj11.png"",""img/obj2.png"",0],[0,""img/obj8.png"",""img/obj6.png"",0,0]]","","","","","","","","","",""
"vsl-grid-scene-snap","91","317741","0.0-5.0-2.0-36.0","","","[[0,""img/obj7.png"",0,0,0],[""img/obj10.png"",""img/obj1.png"",0,0,0],[0,""img/obj4.png"",""img/obj3.png"",0,0],[0,0,0,""img/obj12.png"",0],[0,0,0,0,0]]","","","","","","","","","",""
"vsl-grid-scene-snap","92","320768","0.0-5.0-2.0-37.0","","","[[0,0,0,0,0],[0,0,""img/obj9.png"",""img/obj5.png"",0],[0,0,""img/obj11.png"",""img/obj2.png"",0],[0,""img/obj8.png"",""img/obj6.png"",0,0],[0,0,0,0,0]]","","","","","","","","","",""
"vsl-grid-scene-snap","93","323792","0.0-5.0-2.0-38.0","","","[[0,0,0,0,0],[""img/obj9.png"",0,0,0,0],[0,""img/obj2.png"",""img/obj7.png"",0,0],[""img/obj6.png"",""img/obj10.png"",0,0,0],[0,0,""img/obj4.png"",0,0]]","","","","","","","","","",""
"vsl-grid-scene-snap","94","326815","0.0-5.0-2.0-39.0","","","[[0,0,""img/obj9.png"",0,0],[0,0,""img/obj5.png"",""img/obj2.png"",0],[0,""img/obj11.png"",""img/obj6.png"",0,0],[""img/obj8.png"",0,0,0,0],[0,0,0,0,0]]","","","","","","","","","",""
"vsl-grid-scene-snap","95","329831","0.0-5.0-2.0-40.0","","","[[0,""img/obj1.png"",0,0,0],[0,0,""img/obj3.png"",""img/obj5.png"",0],[0,0,""img/obj11.png"",""img/obj12.png"",0],[0,""img/obj8.png"",0,0,0],[0,0,0,0,0]]","","","","","","","","","",""
"vsl-grid-scene-snap","96","332849","0.0-5.0-2.0-41.0","","","[[0,0,0,0,0],[0,0,0,""img/obj9.png"",""img/obj5.png""],[0,0,0,""img/obj11.png"",""img/obj2.png""],[0,0,""img/obj8.png"",""img/obj6.png"",0],[0,0,0,0,0]]","","","","","","","","","",""
"vsl-grid-scene-snap","97","335867","0.0-5.0-2.0-42.0","","","[[0,""img/obj9.png"",""img/obj1.png"",0,0],[0,0,""img/obj2.png"",""img/obj3.png"",0],[0,""img/obj6.png"",0,0,""img/obj12.png""],[0,0,0,0,0],[0,0,0,0,0]]","","","","","","","","","",""
"vsl-grid-scene-snap","98","338888","0.0-5.0-2.0-43.0","","","[[0,0,0,0,0],[0,""img/obj1.png"",0,0,0],[0,0,""img/obj3.png"",""img/obj7.png"",0],[0,0,""img/obj10.png"",""img/obj12.png"",0],[0,0,0,""img/obj4.png"",0]]","","","","","","","","","",""
"vsl-grid-scene-snap","99","341909","0.0-5.0-2.0-44.0","","","[[0,0,0,0,0],[0,0,0,0,0],[0,""img/obj1.png"",0,0,""img/obj7.png""],[0,0,""img/obj3.png"",""img/obj10.png"",0],[0,0,0,""img/obj12.png"",""img/obj4.png""]]","","","","","","","","","",""
"vsl-grid-scene-snap","100","344925","0.0-5.0-2.0-45.0","","","[[0,0,0,""img/obj5.png"",0],[0,""img/obj1.png"",""img/obj11.png"",0,0],[0,""img/obj8.png"",""img/obj3.png"",0,0],[0,0,0,""img/obj12.png"",0],[0,0,0,0,0]]","","","","","","","","","",""
"vsl-grid-scene-snap","101","347948","0.0-5.0-2.0-46.0","","","[[0,0,""img/obj9.png"",0,0],[0,0,""img/obj7.png"",""img/obj2.png"",0],[0,""img/obj10.png"",""img/obj6.png"",0,0],[0,0,""img/obj4.png"",0,0],[0,0,0,0,0]]","","","","","","","","","",""
"vsl-grid-scene-snap","102","350958","0.0-5.0-2.0-47.0","","","[[0,0,0,""img/obj7.png"",0],[0,""img/obj1.png"",""img/obj10.png"",0,0],[0,0,""img/obj3.png"",""img/obj4.png"",0],[0,0,0,""img/obj12.png"",0],[0,0,0,0,0]]","","","","","","","","","",""
"vsl-grid-scene","103","352614","0.0-5.0-3.0-0.0-0.0","","642",""," ","","","","","","","","",""
"html-keyboard-response","104","353624","0.0-5.0-3.0-1.0","","null"," ","null","","","","","","","","",""
"vsl-grid-scene-snap","105","355634","0.0-5.0-4.0-0.0","","","[[0,""img/obj1.png"",""img/obj9.png"",0,0],[0,0,""img/obj3.png"",""img/obj2.png"",0],[0,0,""img/obj6.png"",""img/obj12.png"",0],[0,0,0,0,0],[0,0,0,0,0]]","","","","","","","","","",""
"vsl-grid-scene-snap","106","358652","0.0-5.0-4.0-1.0","","","[[0,0,0,""img/obj5.png"",0],[0,""img/obj7.png"",""img/obj11.png"",0,0],[""img/obj10.png"",""img/obj8.png"",0,0,0],[0,""img/obj4.png"",0,0,0],[0,0,0,0,0]]","","","","","","","","","",""
"vsl-grid-scene-snap","107","361676","0.0-5.0-4.0-2.0","","","[[0,""img/obj1.png"",0,0,0],[0,0,""img/obj3.png"",""img/obj9.png"",0],[0,0,0,""img/obj12.png"",""img/obj2.png""],[0,0,0,""img/obj6.png"",0],[0,0,0,0,0]]","","","","","","","","","",""
"vsl-grid-scene-snap","108","364690","0.0-5.0-4.0-3.0","","","[[0,0,0,0,0],[""img/obj9.png"",0,0,""img/obj5.png"",0],[0,""img/obj2.png"",""img/obj11.png"",0,0],[""img/obj6.png"",""img/obj8.png"",0,0,0],[0,0,0,0,0]]","","","","","","","","","",""
"vsl-grid-scene-snap","109","367713","0.0-5.0-4.0-4.0","","","[[0,0,""img/obj1.png"",0,0],[0,0,0,""img/obj3.png"",0],[0,0,0,""img/obj9.png"",""img/obj12.png""],[0,0,0,0,""img/obj2.png""],[0,0,0,""img/obj6.png"",0]]","","","","","","","","","",""
"vsl-grid-scene-snap","110","370720","0.0-5.0-4.0-5.0","","","[[0,0,0,0,0],[0,0,""img/obj9.png"",0,0],[0,0,""img/obj7.png"",""img/obj2.png"",0],[0,""img/obj10.png"",""img/obj6.png"",0,0],[0,0,""img/obj4.png"",0,0]]","","","","","","","","","",""
"vsl-grid-scene-snap","111","373733","0.0-5.0-4.0-6.0","","","[[0,0,""img/obj9.png"",""img/obj5.png"",0],[0,0,""img/obj11.png"",""img/obj2.png"",0],[0,""img/obj8.png"",""img/obj6.png"",0,0],[0,0,0,0,0],[0,0,0,0,0]]","","","","","","","","","",""
"vsl-grid-scene-snap","112","376759","0.0-5.0-4.0-7.0","","","[[0,0,0,0,0],[""img/obj1.png"",0,0,0,0],[0,""img/obj3.png"",""img/obj9.png"",0,0],[0,0,""img/obj12.png"",""img/obj2.png"",0],[0,0,""img/obj6.png"",0,0]]","","","","","","","","","",""
"vsl-grid-scene-snap","113","379783","0.0-5.0-4.0-8.0","","","[[0,0,0,0,0],[0,0,0,""img/obj7.png"",0],[0,0,""img/obj10.png"",""img/obj5.png"",0],[0,0,""img/obj11.png"",""img/obj4.png"",0],[0,""img/obj8.png"",0,0,0]]","","","","","","","","","",""
"vsl-grid-scene-snap","114","382804","0.0-5.0-4.0-9.0","","","[[0,""img/obj1.png"",""img/obj7.png"",0,0],[0,""img/obj10.png"",""img/obj3.png"",0,0],[0,0,""img/obj4.png"",""img/obj12.png"",0],[0,0,0,0,0],[0,0,0,0,0]]","","","","","","","","","",""
"vsl-grid-scene-snap","115","385816","0.0-5.0-4.0-10.0","","","[[0,0,""img/obj1.png"",0,0],[0,0,0,""img/obj3.png"",""img/obj7.png""],[0,0,0,""img/obj10.png"",""img/obj12.png""],[0,0,0,0,""img/obj4.png""],[0,0,0,0,0]]","","","","","","","","","",""
"vsl-grid-scene-snap","116","388837","0.0-5.0-4.0-11.0","","","[[0,0,0,0,0],[0,0,""img/obj7.png"",0,0],[""img/obj1.png"",""img/obj10.png"",0,0,0],[0,""img/obj3.png"",""img/obj4.png"",0,0],[0,0,""img/obj12.png"",0,0]]","","","","","","","","","",""
"vsl-grid-scene-snap","117","391856","0.0-5.0-4.0-12.0","","","[[0,0,""img/obj1.png"",0,0],[0,0,0,""img/obj3.png"",""img/obj5.png""],[0,0,0,""img/obj11.png"",""img/obj12.png""],[0,0,""img/obj8.png"",0,0],[0,0,0,0,0]]","","","","","","","","","",""
"vsl-grid-scene-snap","118","394861","0.0-5.0-4.0-13.0","","","[[0,0,0,0,""img/obj7.png""],[0,0,""img/obj9.png"",""img/obj10.png"",0],[0,0,0,""img/obj2.png"",""img/obj4.png""],[0,0,""img/obj6.png"",0,0],[0,0,0,0,0]]","","","","","","","","","",""
"vsl-grid-scene-snap","119","397878","0.0-5.0-4.0-14.0","","","[[0,0,0,""img/obj7.png"",0],[0,0,""img/obj10.png"",""img/obj5.png"",0],[0,0,""img/obj11.png"",""img/obj4.png"",0],[0,""img/obj8.png"",0,0,0],[0,0,0,0,0]]","","","","","","","","","",""
"vsl-grid-scene-snap","120","400895","0.0-5.0-4.0-15.0","","","[[0,0,0,0,0],[0,0,0,""img/obj7.png"",0],[0,""img/obj9.png"",""img/obj10.png"",0,0],[0,0,""img/obj2.png"",""img/obj4.png"",0],[0,""img/obj6.png"",0,0,0]]","","","","","","","","","",""
"vsl-grid-scene","121","402641","0.0-5.0-5.0-0.0-0.0","","735",""," ","","","","","","","","",""
"html-keyboard-response","122","403655","0.0-5.0-5.0-1.0","","null"," ","null","","","","","","","","",""
"vsl-grid-scene-snap","123","405671","0.0-5.0-6.0-0.0","","","[[0,0,0,0,0],[0,""img/obj9.png"",0,0,""img/obj5.png""],[0,0,""img/obj2.png"",""img/obj11.png"",0],[0,""img/obj6.png"",""img/obj8.png"",0,0],[0,0,0,0,0]]","","","","","","","","","",""
"vsl-grid-scene-snap","124","408687","0.0-5.0-6.0-1.0","","","[[0,0,0,0,""img/obj5.png""],[0,0,""img/obj7.png"",""img/obj11.png"",0],[0,""img/obj10.png"",""img/obj8.png"",0,0],[0,0,""img/obj4.png"",0,0],[0,0,0,0,0]]","","","","","","","","","",""
"vsl-grid-scene-snap","125","411701","0.0-5.0-6.0-2.0","","","[[0,0,0,0,0],[0,""img/obj1.png"",0,0,0],[0,""img/obj9.png"",""img/obj3.png"",0,0],[0,0,""img/obj2.png"",""img/obj12.png"",0],[0,""img/obj6.png"",0,0,0]]","","","","","","","","","",""
"vsl-grid-scene-snap","126","414722","0.0-5.0-6.0-3.0","","","[[0,0,0,0,0],[""img/obj9.png"",0,0,0,0],[""img/obj1.png"",""img/obj2.png"",0,0,0],[""img/obj6.png"",""img/obj3.png"",0,0,0],[0,0,""img/obj12.png"",0,0]]","","","","","","","","","",""
"vsl-grid-scene-snap","127","417736","0.0-5.0-6.0-4.0","","","[[0,0,""img/obj9.png"",0,0],[0,0,0,""img/obj2.png"",""img/obj5.png""],[0,0,""img/obj6.png"",""img/obj11.png"",0],[0,0,""img/obj8.png"",0,0],[0,0,0,0,0]]","","","","","","","","","",""
"vsl-grid-scene-snap","128","420754","0.0-5.0-6.0-5.0","","","[[0,0,0,0,0],[0,""img/obj1.png"",0,0,""img/obj7.png""],[0,0,""img/obj3.png"",""img/obj10.png"",0],[0,0,0,""img/obj12.png"",""img/obj4.png""],[0,0,0,0,0]]","","","","","","","","","",""
"vsl-grid-scene-snap","129","423770","0.0-5.0-6.0-6.0","","","[[0,0,0,0,0],[0,0,""img/obj1.png"",""img/obj5.png"",0],[0,0,""img/obj11.png"",""img/obj3.png"",0],[0,""img/obj8.png"",0,0,""img/obj12.png""],[0,0,0,0,0]]","","","","","","","","","",""
"vsl-grid-scene-snap","130","426795","0.0-5.0-6.0-7.0","","","[[0,0,0,""img/obj9.png"",0],[0,0,0,0,""img/obj2.png""],[0,0,0,""img/obj6.png"",""img/obj5.png""],[0,0,0,""img/obj11.png"",0],[0,0,""img/obj8.png"",0,0]]","","","","","","","","","",""
"vsl-grid-scene-snap","131","429812","0.0-5.0-6.0-8.0","","","[[0,0,""img/obj7.png"",0,0],[0,""img/obj10.png"",""img/obj9.png"",0,0],[0,0,""img/obj4.png"",""img/obj2.png"",0],[0,0,""img/obj6.png"",0,0],[0,0,0,0,0]]","","","","","","","","","",""
"vsl-grid-scene-snap","132","432825","0.0-5.0-6.0-9.0","","","[[0,""img/obj9.png"",0,0,0],[0,0,""img/obj2.png"",0,0],[0,""img/obj6.png"",""img/obj5.png"",0,0],[0,""img/obj11.png"",0,0,0],[""img/obj8.png"",0,0,0,0]]","","","","","","","","","",""
"vsl-grid-scene-snap","133","435836","0.0-5.0-6.0-10.0","","","[[0,0,0,""img/obj5.png"",0],[0,0,""img/obj11.png"",0,0],[0,""img/obj8.png"",""img/obj7.png"",0,0],[0,""img/obj10.png"",0,0,0],[0,0,""img/obj4.png"",0,0]]","","","","","","","","","",""
"vsl-grid-scene-snap","134","438863","0.0-5.0-6.0-11.0","","","[[0,0,0,0,0],[0,""img/obj9.png"",0,0,0],[0,""img/obj1.png"",""img/obj2.png"",0,0],[0,""img/obj6.png"",""img/obj3.png"",0,0],[0,0,0,""img/obj12.png"",0]]","","","","","","","","","",""
"vsl-grid-scene-snap","135","441871","0.0-5.0-6.0-12.0","","","[[0,0,0,0,0],[0,0,0,""img/obj9.png"",0],[0,0,0,""img/obj5.png"",""img/obj2.png""],[0,0,""img/obj11.png"",""img/obj6.png"",0],[0,""img/obj8.png"",0,0,0]]","","","","","","","","","",""
"vsl-grid-scene-snap","136","444894","0.0-5.0-6.0-13.0","","","[[0,""img/obj1.png"",0,0,0],[0,0,""img/obj3.png"",0,0],[0,0,""img/obj9.png"",""img/obj12.png"",0],[0,0,0,""img/obj2.png"",0],[0,0,""img/obj6.png"",0,0]]","","","","","","","","","",""
"vsl-grid-scene-snap","137","447914","0.0-5.0-6.0-14.0","","","[[0,0,0,0,0],[0,""img/obj1.png"",""img/obj7.png"",0,0],[0,""img/obj10.png"",""img/obj3.png"",0,0],[0,0,""img/obj4.png"",""img/obj12.png"",0],[0,0,0,0,0]]","","","","","","","","","",""
"vsl-grid-scene-snap","138","450933","0.0-5.0-6.0-15.0","","","[[0,0,0,0,0],[0,0,""img/obj5.png"",""img/obj7.png"",0],[0,""img/obj11.png"",""img/obj10.png"",0,0],[""img/obj8.png"",0,0,""img/obj4.png"",0],[0,0,0,0,0]]","","","","","","","","","",""
"vsl-grid-scene-snap","139","453944","0.0-5.0-6.0-16.0","","","[[0,""img/obj9.png"",0,0,0],[0,0,""img/obj2.png"",""img/obj7.png"",0],[0,""img/obj6.png"",""img/obj10.png"",0,0],[0,0,0,""img/obj4.png"",0],[0,0,0,0,0]]","","","","","","","","","",""
"vsl-grid-scene-snap","140","456962","0.0-5.0-6.0-17.0","","","[[0,0,0,0,0],[0,0,0,""img/obj5.png"",0],[0,""img/obj1.png"",""img/obj11.png"",0,0],[0,""img/obj8.png"",""img/obj3.png"",0,0],[0,0,0,""img/obj12.png"",0]]","","","","","","","","","",""
"vsl-grid-scene-snap","141","459987","0.0-5.0-6.0-18.0","","","[[0,0,""img/obj5.png"",0,0],[0,""img/obj11.png"",0,0,0],[""img/obj8.png"",""img/obj7.png"",0,0,0],[""img/obj10.png"",0,0,0,0],[0,""img/obj4.png"",0,0,0]]","","","","","","","","","",""
"vsl-grid-scene-snap","142","463014","0.0-5.0-6.0-19.0","","","[[0,0,0,""img/obj5.png"",0],[0,0,""img/obj11.png"",""img/obj7.png"",0],[0,""img/obj8.png"",""img/obj10.png"",0,0],[0,0,0,""img/obj4.png"",0],[0,0,0,0,0]]","","","","","","","","","",""
"vsl-grid-scene-snap","143","466031","0.0-5.0-6.0-20.0","","","[[0,0,""img/obj7.png"",0,0],[""img/obj1.png"",""img/obj10.png"",0,0,0],[0,""img/obj3.png"",""img/obj4.png"",0,0],[0,0,""img/obj12.png"",0,0],[0,0,0,0,0]]","","","","","","","","","",""
"vsl-grid-scene-snap","144","469047","0.0-5.0-6.0-21.0","","","[[0,0,0,0,0],[0,""img/obj7.png"",0,0,0],[""img/obj10.png"",""img/obj1.png"",0,0,0],[0,""img/obj4.png"",""img/obj3.png"",0,0],[0,0,0,""img/obj12.png"",0]]","","","","","","","","","",""
"vsl-grid-scene-snap","145","472075","0.0-5.0-6.0-22.0","","","[[0,0,0,0,0],[0,0,0,""img/obj9.png"",0],[0,0,0,""img/obj7.png"",""img/obj2.png""],[0,0,""img/obj10.png"",""img/obj6.png"",0],[0,0,0,""img/obj4.png"",0]]","","","","","","","","","",""
"vsl-grid-scene-snap","146","475097","0.0-5.0-6.0-23.0","","","[[0,0,0,""img/obj5.png"",""img/obj7.png""],[0,0,""img/obj11.png"",""img/obj10.png"",0],[0,""img/obj8.png"",0,0,""img/obj4.png""],[0,0,0,0,0],[0,0,0,0,0]]","","","","","","","","","",""
"vsl-grid-scene-snap","147","478117","0.0-5.0-6.0-24.0","","","[[0,""img/obj1.png"",0,0,0],[0,0,""img/obj3.png"",""img/obj7.png"",0],[0,0,""img/obj10.png"",""img/obj12.png"",0],[0,0,0,""img/obj4.png"",0],[0,0,0,0,0]]","","","","","","","","","",""
"vsl-grid-scene-snap","148","481146","0.0-5.0-6.0-25.0","","","[[0,""img/obj1.png"",0,0,0],[0,""img/obj9.png"",""img/obj3.png"",0,0],[0,0,""img/obj2.png"",""img/obj12.png"",0],[0,""img/obj6.png"",0,0,0],[0,0,0,0,0]]","","","","","","","","","",""
"vsl-grid-scene-snap","149","484170","0.0-5.0-6.0-26.0","","","[[0,0,0,0,""img/obj5.png""],[0,0,0,""img/obj11.png"",0],[0,0,""img/obj8.png"",""img/obj7.png"",0],[0,0,""img/obj10.png"",0,0],[0,0,0,""img/obj4.png"",0]]","","","","","","","","","",""
"vsl-grid-scene-snap","150","487196","0.0-5.0-6.0-27.0","","","[[0,""img/obj9.png"",0,0,0],[0,""img/obj1.png"",""img/obj2.png"",0,0],[0,""img/obj6.png"",""img/obj3.png"",0,0],[0,0,0,""img/obj12.png"",0],[0,0,0,0,0]]","","","","","","","","","",""
"vsl-grid-scene-snap","151","490213","0.0-5.0-6.0-28.0","","","[[0,0,0,0,0],[0,0,0,""img/obj5.png"",0],[0,""img/obj7.png"",""img/obj11.png"",0,0],[""img/obj10.png"",""img/obj8.png"",0,0,0],[0,""img/obj4.png"",0,0,0]]","","","","","","","","","",""
"vsl-grid-scene-snap","152","493224","0.0-5.0-6.0-29.0","","","[[0,""img/obj9.png"",0,0,0],[0,0,""img/obj2.png"",""img/obj5.png"",0],[0,""img/obj6.png"",""img/obj11.png"",0,0],[0,""img/obj8.png"",0,0,0],[0,0,0,0,0]]","","","","","","","","","",""
"vsl-grid-scene-snap","153","496253","0.0-5.0-6.0-30.0","","","[[0,0,0,0,0],[0,""img/obj9.png"",""img/obj1.png"",0,0],[0,0,""img/obj2.png"",""img/obj3.png"",0],[0,""img/obj6.png"",0,0,""img/obj12.png""],[0,0,0,0,0]]","","","","","","","","","",""
"vsl-grid-scene-snap","154","499266","0.0-5.0-6.0-31.0","","","[[0,0,0,0,0],[0,""img/obj9.png"",""img/obj5.png"",0,0],[0,""img/obj11.png"",""img/obj2.png"",0,0],[""img/obj8.png"",""img/obj6.png"",0,0,0],[0,0,0,0,0]]","","","","","","","","","",""
"vsl-grid-scene-snap","155","502287","0.0-5.0-6.0-32.0","","","[[0,0,0,0,0],[0,0,""img/obj7.png"",""img/obj5.png"",0],[0,""img/obj10.png"",""img/obj11.png"",0,0],[0,""img/obj8.png"",""img/obj4.png"",0,0],[0,0,0,0,0]]","","","","","","","","","",""
"vsl-grid-scene-snap","156","505299","0.0-5.0-6.0-33.0","","","[[""img/obj1.png"",0,0,0,0],[0,""img/obj3.png"",0,0,0],[0,""img/obj9.png"",""img/obj12.png"",0,0],[0,0,""img/obj2.png"",0,0],[0,""img/obj6.png"",0,0,0]]","","","","","","","","","",""
"vsl-grid-scene-snap","157","508310","0.0-5.0-6.0-34.0","","","[[0,0,0,0,0],[0,0,0,""img/obj5.png"",0],[0,0,""img/obj11.png"",""img/obj7.png"",0],[0,""img/obj8.png"",""img/obj10.png"",0,0],[0,0,0,""img/obj4.png"",0]]","","","","","","","","","",""
"vsl-grid-scene-snap","158","511324","0.0-5.0-6.0-35.0","","","[[0,0,0,0,0],[0,""img/obj1.png"",0,0,0],[0,0,""img/obj3.png"",""img/obj9.png"",0],[0,0,0,""img/obj12.png"",""img/obj2.png""],[0,0,0,""img/obj6.png"",0]]","","","","","","","","","",""
"vsl-grid-scene-snap","159","514331","0.0-5.0-6.0-36.0","","","[[0,0,0,0,0],[0,""img/obj7.png"",""img/obj5.png"",0,0],[""img/obj10.png"",""img/obj11.png"",0,0,0],[""img/obj8.png"",""img/obj4.png"",0,0,0],[0,0,0,0,0]]","","","","","","","","","",""
"vsl-grid-scene-snap","160","517345","0.0-5.0-6.0-37.0","","","[[0,0,0,""img/obj9.png"",0],[0,0,0,""img/obj5.png"",""img/obj2.png""],[0,0,""img/obj11.png"",""img/obj6.png"",0],[0,""img/obj8.png"",0,0,0],[0,0,0,0,0]]","","","","","","","","","",""
"vsl-grid-scene-snap","161","520365","0.0-5.0-6.0-38.0","","","[[0,0,0,0,0],[""img/obj9.png"",""img/obj1.png"",0,0,0],[0,""img/obj2.png"",""img/obj3.png"",0,0],[""img/obj6.png"",0,0,""img/obj12.png"",0],[0,0,0,0,0]]","","","","","","","","","",""
"vsl-grid-scene-snap","162","523388","0.0-5.0-6.0-39.0","","","[[0,0,0,0,0],[0,0,""img/obj1.png"",""img/obj7.png"",0],[0,0,""img/obj10.png"",""img/obj3.png"",0],[0,0,0,""img/obj4.png"",""img/obj12.png""],[0,0,0,0,0]]","","","","","","","","","",""
"vsl-grid-scene-snap","163","526405","0.0-5.0-6.0-40.0","","","[[0,0,""img/obj7.png"",""img/obj5.png"",0],[0,""img/obj10.png"",""img/obj11.png"",0,0],[0,""img/obj8.png"",""img/obj4.png"",0,0],[0,0,0,0,0],[0,0,0,0,0]]","","","","","","","","","",""
"vsl-grid-scene-snap","164","529418","0.0-5.0-6.0-41.0","","","[[0,0,0,0,0],[0,0,""img/obj5.png"",0,0],[0,""img/obj11.png"",""img/obj7.png"",0,0],[""img/obj8.png"",""img/obj10.png"",0,0,0],[0,0,""img/obj4.png"",0,0]]","","","","","","","","","",""
"vsl-grid-scene-snap","165","532430","0.0-5.0-6.0-42.0","","","[[0,0,0,0,0],[0,0,""img/obj7.png"",0,0],[0,""img/obj10.png"",""img/obj1.png"",0,0],[0,0,""img/obj4.png"",""img/obj3.png"",0],[0,0,0,0,""img/obj12.png""]]","","","","","","","","","",""
"vsl-grid-scene-snap","166","535448","0.0-5.0-6.0-43.0","","","[[0,0,0,0,0],[0,""img/obj1.png"",""img/obj9.png"",0,0],[0,0,""img/obj3.png"",""img/obj2.png"",0],[0,0,""img/obj6.png"",""img/obj12.png"",0],[0,0,0,0,0]]","","","","","","","","","",""
"vsl-grid-scene-snap","167","538478","0.0-5.0-6.0-44.0","","","[[0,0,0,0,0],[0,0,0,""img/obj5.png"",""img/obj7.png""],[0,0,""img/obj11.png"",""img/obj10.png"",0],[0,""img/obj8.png"",0,0,""img/obj4.png""],[0,0,0,0,0]]","","","","","","","","","",""
"vsl-grid-scene-snap","168","541492","0.0-5.0-6.0-45.0","","","[[0,0,0,0,0],[0,0,0,0,""img/obj7.png""],[0,0,0,""img/obj10.png"",""img/obj5.png""],[0,0,0,""img/obj11.png"",""img/obj4.png""],[0,0,""img/obj8.png"",0,0]]","","","","","","","","","",""
"vsl-grid-scene-snap","169","544501","0.0-5.0-6.0-46.0","","","[[0,0,0,0,0],[""img/obj1.png"",0,0,""img/obj7.png"",0],[0,""img/obj3.png"",""img/obj10.png"",0,0],[0,0,""img/obj12.png"",""img/obj4.png"",0],[0,0,0,0,0]]","","","","","","","","","",""
"vsl-grid-scene-snap","170","547512","0.0-5.0-6.0-47.0","","","[[0,0,0,0,0],[0,0,""img/obj1.png"",0,0],[0,0,""img/obj9.png"",""img/obj3.png"",0],[0,0,0,""img/obj2.png"",""img/obj12.png""],[0,0,""img/obj6.png"",0,0]]","","","","","","","","","",""
"vsl-grid-scene","171","549147","0.0-5.0-7.0-0.0-0.0","","626",""," ","","","","","","","","",""
"html-keyboard-response","172","550151","0.0-5.0-7.0-1.0","","null"," ","null","","","","","","","","",""
"vsl-grid-scene-snap","173","552167","0.0-5.0-8.0-0.0","","","[[0,0,0,0,0],[""img/obj1.png"",""img/obj7.png"",0,0,0],[""img/obj10.png"",""img/obj3.png"",0,0,0],[0,""img/obj4.png"",""img/obj12.png"",0,0],[0,0,0,0,0]]","","","","","","","","","",""
"vsl-grid-scene-snap","174","555192","0.0-5.0-8.0-1.0","","","[[0,0,0,0,0],[0,0,0,0,0],[0,0,""img/obj7.png"",""img/obj5.png"",0],[0,""img/obj10.png"",""img/obj11.png"",0,0],[0,""img/obj8.png"",""img/obj4.png"",0,0]]","","","","","","","","","",""
"vsl-grid-scene-snap","175","558205","0.0-5.0-8.0-2.0","","","[[0,0,0,0,0],[""img/obj1.png"",0,0,""img/obj5.png"",0],[0,""img/obj3.png"",""img/obj11.png"",0,0],[0,""img/obj8.png"",""img/obj12.png"",0,0],[0,0,0,0,0]]","","","","","","","","","",""
"vsl-grid-scene-snap","176","561212","0.0-5.0-8.0-3.0","","","[[0,0,0,0,0],[0,0,""img/obj1.png"",""img/obj9.png"",0],[0,0,0,""img/obj3.png"",""img/obj2.png""],[0,0,0,""img/obj6.png"",""img/obj12.png""],[0,0,0,0,0]]","","","","","","","","","",""
"vsl-grid-scene-snap","177","564242","0.0-5.0-8.0-4.0","","","[[0,0,0,0,0],[0,0,""img/obj9.png"",0,0],[0,0,0,""img/obj2.png"",""img/obj5.png""],[0,0,""img/obj6.png"",""img/obj11.png"",0],[0,0,""img/obj8.png"",0,0]]","","","","","","","","","",""
"vsl-grid-scene-snap","178","567267","0.0-5.0-8.0-5.0","","","[[0,0,0,0,0],[0,""img/obj9.png"",0,0,0],[0,0,""img/obj2.png"",""img/obj7.png"",0],[0,""img/obj6.png"",""img/obj10.png"",0,0],[0,0,0,""img/obj4.png"",0]]","","","","","","","","","",""
"vsl-grid-scene-snap","179","570285","0.0-5.0-8.0-6.0","","","[[0,0,0,0,0],[0,0,0,""img/obj7.png"",""img/obj5.png""],[0,0,""img/obj10.png"",""img/obj11.png"",0],[0,0,""img/obj8.png"",""img/obj4.png"",0],[0,0,0,0,0]]","","","","","","","","","",""
"vsl-grid-scene-snap","180","573297","0.0-5.0-8.0-7.0","","","[[0,0,0,0,0],[0,""img/obj1.png"",0,0,0],[0,0,""img/obj3.png"",""img/obj5.png"",0],[0,0,""img/obj11.png"",""img/obj12.png"",0],[0,""img/obj8.png"",0,0,0]]","","","","","","","","","",""
"vsl-grid-scene-snap","181","576311","0.0-5.0-8.0-8.0","","","[[0,0,0,0,0],[0,0,0,0,0],[0,""img/obj1.png"",""img/obj7.png"",0,0],[0,""img/obj10.png"",""img/obj3.png"",0,0],[0,0,""img/obj4.png"",""img/obj12.png"",0]]","","","","","","","","","",""
"vsl-grid-scene-snap","182","579321","0.0-5.0-8.0-9.0","","","[[0,0,0,0,0],[0,0,0,""img/obj7.png"",0],[0,""img/obj1.png"",""img/obj10.png"",0,0],[0,0,""img/obj3.png"",""img/obj4.png"",0],[0,0,0,""img/obj12.png"",0]]","","","","","","","","","",""
"vsl-grid-scene-snap","183","582339","0.0-5.0-8.0-10.0","","","[[0,0,0,0,0],[0,""img/obj9.png"",0,0,0],[0,0,""img/obj2.png"",""img/obj5.png"",0],[0,""img/obj6.png"",""img/obj11.png"",0,0],[0,""img/obj8.png"",0,0,0]]","","","","","","","","","",""
"vsl-grid-scene-snap","184","585356","0.0-5.0-8.0-11.0","","","[[0,""img/obj1.png"",""img/obj5.png"",0,0],[0,""img/obj11.png"",""img/obj3.png"",0,0],[""img/obj8.png"",0,0,""img/obj12.png"",0],[0,0,0,0,0],[0,0,0,0,0]]","","","","","","","","","",""
"vsl-grid-scene-snap","185","588362","0.0-5.0-8.0-12.0","","","[[0,0,0,0,0],[0,0,0,""img/obj5.png"",0],[0,""img/obj9.png"",""img/obj11.png"",0,0],[0,""img/obj8.png"",""img/obj2.png"",0,0],[0,""img/obj6.png"",0,0,0]]","","","","","","","","","",""
"vsl-grid-scene-snap","186","591391","0.0-5.0-8.0-13.0","","","[[0,""img/obj7.png"",0,0,0],[""img/obj10.png"",""img/obj9.png"",0,0,0],[0,""img/obj4.png"",""img/obj2.png"",0,0],[0,""img/obj6.png"",0,0,0],[0,0,0,0,0]]","","","","","","","","","",""
"vsl-grid-scene-snap","187","594415","0.0-5.0-8.0-14.0","","","[[0,0,0,0,0],[0,0,""img/obj7.png"",0,0],[0,""img/obj10.png"",""img/obj9.png"",0,0],[0,0,""img/obj4.png"",""img/obj2.png"",0],[0,0,""img/obj6.png"",0,0]]","","","","","","","","","",""
"vsl-grid-scene-snap","188","597428","0.0-5.0-8.0-15.0","","","[[0,0,0,0,0],[0,0,""img/obj5.png"",0,0],[""img/obj1.png"",""img/obj11.png"",0,0,0],[""img/obj8.png"",""img/obj3.png"",0,0,0],[0,0,""img/obj12.png"",0,0]]","","","","","","","","","",""
"vsl-grid-scene-snap","189","600432","0.0-5.0-8.0-16.0","","","[[0,0,0,0,0],[0,""img/obj1.png"",""img/obj5.png"",0,0],[0,""img/obj11.png"",""img/obj3.png"",0,0],[""img/obj8.png"",0,0,""img/obj12.png"",0],[0,0,0,0,0]]","","","","","","","","","",""
"vsl-grid-scene-snap","190","603442","0.0-5.0-8.0-17.0","","","[[0,0,0,0,0],[0,0,0,0,""img/obj5.png""],[0,0,""img/obj7.png"",""img/obj11.png"",0],[0,""img/obj10.png"",""img/obj8.png"",0,0],[0,0,""img/obj4.png"",0,0]]","","","","","","","","","",""
"vsl-grid-scene-snap","191","606467","0.0-5.0-8.0-18.0","","","[[0,0,0,""img/obj7.png"",0],[0,0,""img/obj10.png"",0,0],[0,0,""img/obj1.png"",""img/obj4.png"",0],[0,0,0,""img/obj3.png"",0],[0,0,0,0,""img/obj12.png""]]","","","","","","","","","",""
"vsl-grid-scene-snap","192","609482","0.0-5.0-8.0-19.0","","","[[0,0,0,""img/obj7.png"",0],[0,""img/obj9.png"",""img/obj10.png"",0,0],[0,0,""img/obj2.png"",""img/obj4.png"",0],[0,""img/obj6.png"",0,0,0],[0,0,0,0,0]]","","","","","","","","","",""
"vsl-grid-scene-snap","193","612505","0.0-5.0-8.0-20.0","","","[[0,0,0,0,0],[0,""img/obj1.png"",0,0,""img/obj5.png""],[0,0,""img/obj3.png"",""img/obj11.png"",0],[0,0,""img/obj8.png"",""img/obj12.png"",0],[0,0,0,0,0]]","","","","","","","","","",""
"vsl-grid-scene-snap","194","615515","0.0-5.0-8.0-21.0","","","[[0,0,""img/obj5.png"",0,0],[""img/obj9.png"",""img/obj11.png"",0,0,0],[""img/obj8.png"",""img/obj2.png"",0,0,0],[""img/obj6.png"",0,0,0,0],[0,0,0,0,0]]","","","","","","","","","",""
"vsl-grid-scene-snap","195","618525","0.0-5.0-8.0-22.0","","","[[0,0,0,0,0],[0,0,0,0,0],[0,""img/obj1.png"",0,0,""img/obj5.png""],[0,0,""img/obj3.png"",""img/obj11.png"",0],[0,0,""img/obj8.png"",""img/obj12.png"",0]]","","","","","","","","","",""
"vsl-grid-scene-snap","196","621535","0.0-5.0-8.0-23.0","","","[[0,0,0,0,0],[0,0,0,0,0],[""img/obj9.png"",0,0,""img/obj5.png"",0],[0,""img/obj2.png"",""img/obj11.png"",0,0],[""img/obj6.png"",""img/obj8.png"",0,0,0]]","","","","","","","","","",""
"vsl-grid-scene-snap","197","624565","0.0-5.0-8.0-24.0","","","[[0,0,0,""img/obj5.png"",0],[0,""img/obj9.png"",""img/obj11.png"",0,0],[0,""img/obj8.png"",""img/obj2.png"",0,0],[0,""img/obj6.png"",0,0,0],[0,0,0,0,0]]","","","","","","","","","",""
"vsl-grid-scene-snap","198","627585","0.0-5.0-8.0-25.0","","","[[0,0,0,0,0],[""img/obj1.png"",""img/obj9.png"",0,0,0],[0,""img/obj3.png"",""img/obj2.png"",0,0],[0,""img/obj6.png"",""img/obj12.png"",0,0],[0,0,0,0,0]]","","","","","","","","","",""
"vsl-grid-scene-snap","199","630590","0.0-5.0-8.0-26.0","","","[[0,0,""img/obj7.png"",0,0],[0,""img/obj10.png"",0,0,0],[0,""img/obj1.png"",""img/obj4.png"",0,0],[0,0,""img/obj3.png"",0,0],[0,0,0,""img/obj12.png"",0]]","","","","","","","","","",""
"vsl-grid-scene-snap","200","633612","0.0-5.0-8.0-27.0","","","[[0,0,""img/obj5.png"",""img/obj7.png"",0],[0,""img/obj11.png"",""img/obj10.png"",0,0],[""img/obj8.png"",0,0,""img/obj4.png"",0],[0,0,0,0,0],[0,0,0,0,0]]","","","","","","","","","",""
"vsl-grid-scene-snap","201","636640","0.0-5.0-8.0-28.0","","","[[0,""img/obj7.png"",0,0,0],[""img/obj10.png"",0,0,0,0],[""img/obj1.png"",""img/obj4.png"",0,0,0],[0,""img/obj3.png"",0,0,0],[0,0,""img/obj12.png"",0,0]]","","","","","","","","","",""
"vsl-grid-scene-snap","202","639649","0.0-5.0-8.0-29.0","","","[[0,0,""img/obj7.png"",0,0],[0,""img/obj10.png"",""img/obj1.png"",0,0],[0,0,""img/obj4.png"",""img/obj3.png"",0],[0,0,0,0,""img/obj12.png""],[0,0,0,0,0]]","","","","","","","","","",""
"vsl-grid-scene-snap","203","642660","0.0-5.0-8.0-30.0","","","[[0,0,0,0,0],[0,0,""img/obj9.png"",0,0],[0,0,""img/obj5.png"",""img/obj2.png"",0],[0,""img/obj11.png"",""img/obj6.png"",0,0],[""img/obj8.png"",0,0,0,0]]","","","","","","","","","",""
"vsl-grid-scene-snap","204","645675","0.0-5.0-8.0-31.0","","","[[""img/obj9.png"",""img/obj1.png"",0,0,0],[0,""img/obj2.png"",""img/obj3.png"",0,0],[""img/obj6.png"",0,0,""img/obj12.png"",0],[0,0,0,0,0],[0,0,0,0,0]]","","","","","","","","","",""
"vsl-grid-scene-snap","205","648691","0.0-5.0-8.0-32.0","","","[[0,0,""img/obj9.png"",0,0],[0,0,0,""img/obj2.png"",0],[0,0,""img/obj6.png"",""img/obj5.png"",0],[0,0,""img/obj11.png"",0,0],[0,""img/obj8.png"",0,0,0]]","","","","","","","","","",""
"vsl-grid-scene-snap","206","651718","0.0-5.0-8.0-33.0","","","[[0,0,0,0,0],[0,0,0,0,0],[0,""img/obj1.png"",""img/obj9.png"",0,0],[0,0,""img/obj3.png"",""img/obj2.png"",0],[0,0,""img/obj6.png"",""img/obj12.png"",0]]","","","","","","","","","",""
"vsl-grid-scene-snap","207","654740","0.0-5.0-8.0-34.0","","","[[""img/obj1.png"",0,0,0,0],[0,""img/obj3.png"",""img/obj9.png"",0,0],[0,0,""img/obj12.png"",""img/obj2.png"",0],[0,0,""img/obj6.png"",0,0],[0,0,0,0,0]]","","","","","","","","","",""
"vsl-grid-scene-snap","208","657767","0.0-5.0-8.0-35.0","","","[[0,0,0,0,0],[0,0,0,0,0],[0,0,""img/obj9.png"",""img/obj5.png"",0],[0,0,""img/obj11.png"",""img/obj2.png"",0],[0,""img/obj8.png"",""img/obj6.png"",0,0]]","","","","","","","","","",""
"vsl-grid-scene-snap","209","660778","0.0-5.0-8.0-36.0","","","[[0,""img/obj7.png"",0,0,0],[""img/obj10.png"",""img/obj1.png"",0,0,0],[0,""img/obj4.png"",""img/obj3.png"",0,0],[0,0,0,""img/obj12.png"",0],[0,0,0,0,0]]","","","","","","","","","",""
"vsl-grid-scene-snap","210","663801","0.0-5.0-8.0-37.0","","","[[0,0,0,0,0],[0,0,""img/obj9.png"",""img/obj5.png"",0],[0,0,""img/obj11.png"",""img/obj2.png"",0],[0,""img/obj8.png"",""img/obj6.png"",0,0],[0,0,0,0,0]]","","","","","","","","","",""
"vsl-grid-scene-snap","211","666814","0.0-5.0-8.0-38.0","","","[[0,0,0,0,0],[""img/obj9.png"",0,0,0,0],[0,""img/obj2.png"",""img/obj7.png"",0,0],[""img/obj6.png"",""img/obj10.png"",0,0,0],[0,0,""img/obj4.png"",0,0]]","","","","","","","","","",""
"vsl-grid-scene-snap","212","669831","0.0-5.0-8.0-39.0","","","[[0,0,""img/obj9.png"",0,0],[0,0,""img/obj5.png"",""img/obj2.png"",0],[0,""img/obj11.png"",""img/obj6.png"",0,0],[""img/obj8.png"",0,0,0,0],[0,0,0,0,0]]","","","","","","","","","",""
"vsl-grid-scene-snap","213","672847","0.0-5.0-8.0-40.0","","","[[0,""img/obj1.png"",0,0,0],[0,0,""img/obj3.png"",""img/obj5.png"",0],[0,0,""img/obj11.png"",""img/obj12.png"",0],[0,""img/obj8.png"",0,0,0],[0,0,0,0,0]]","","","","","","","","","",""
"vsl-grid-scene-snap","214","675867","0.0-5.0-8.0-41.0","","","[[0,0,0,0,0],[0,0,0,""img/obj9.png"",""img/obj5.png""],[0,0,0,""img/obj11.png"",""img/obj2.png""],[0,0,""img/obj8.png"",""img/obj6.png"",0],[0,0,0,0,0]]","","","","","","","","","",""
"vsl-grid-scene-snap","215","678896","0.0-5.0-8.0-42.0","","","[[0,""img/obj9.png"",""img/obj1.png"",0,0],[0,0,""img/obj2.png"",""img/obj3.png"",0],[0,""img/obj6.png"",0,0,""img/obj12.png""],[0,0,0,0,0],[0,0,0,0,0]]","","","","","","","","","",""
"vsl-grid-scene-snap","216","681913","0.0-5.0-8.0-43.0","","","[[0,0,0,0,0],[0,""img/obj1.png"",0,0,0],[0,0,""img/obj3.png"",""img/obj7.png"",0],[0,0,""img/obj10.png"",""img/obj12.png"",0],[0,0,0,""img/obj4.png"",0]]","","","","","","","","","",""
"vsl-grid-scene-snap","217","684937","0.0-5.0-8.0-44.0","","","[[0,0,0,0,0],[0,0,0,0,0],[0,""img/obj1.png"",0,0,""img/obj7.png""],[0,0,""img/obj3.png"",""img/obj10.png"",0],[0,0,0,""img/obj12.png"",""img/obj4.png""]]","","","","","","","","","",""
"vsl-grid-scene-snap","218","687955","0.0-5.0-8.0-45.0","","","[[0,0,0,""img/obj5.png"",0],[0,""img/obj1.png"",""img/obj11.png"",0,0],[0,""img/obj8.png"",""img/obj3.png"",0,0],[0,0,0,""img/obj12.png"",0],[0,0,0,0,0]]","","","","","","","","","",""
"vsl-grid-scene-snap","219","690963","0.0-5.0-8.0-46.0","","","[[0,0,""img/obj9.png"",0,0],[0,0,""img/obj7.png"",""img/obj2.png"",0],[0,""img/obj10.png"",""img/obj6.png"",0,0],[0,0,""img/obj4.png"",0,0],[0,0,0,0,0]]","","","","","","","","","",""
"vsl-grid-scene-snap","220","693981","0.0-5.0-8.0-47.0","","","[[0,0,0,""img/obj7.png"",0],[0,""img/obj1.png"",""img/obj10.png"",0,0],[0,0,""img/obj3.png"",""img/obj4.png"",0],[0,0,0,""img/obj12.png"",0],[0,0,0,0,0]]","","","","","","","","","",""
"vsl-grid-scene","221","695567","0.0-5.0-9.0-0.0-0.0","","583",""," ","","","","","","","","",""
"html-keyboard-response","222","696578","0.0-5.0-9.0-1.0","","null"," ","null","","","","","","","","",""
"vsl-grid-scene-snap","223","698591","0.0-5.0-10.0-0.0","","","[[0,""img/obj1.png"",""img/obj9.png"",0,0],[0,0,""img/obj3.png"",""img/obj2.png"",0],[0,0,""img/obj6.png"",""img/obj12.png"",0],[0,0,0,0,0],[0,0,0,0,0]]","","","","","","","","","",""
"vsl-grid-scene-snap","224","701619","0.0-5.0-10.0-1.0","","","[[0,0,0,""img/obj5.png"",0],[0,""img/obj7.png"",""img/obj11.png"",0,0],[""img/obj10.png"",""img/obj8.png"",0,0,0],[0,""img/obj4.png"",0,0,0],[0,0,0,0,0]]","","","","","","","","","",""
"vsl-grid-scene-snap","225","704647","0.0-5.0-10.0-2.0","","","[[0,""img/obj1.png"",0,0,0],[0,0,""img/obj3.png"",""img/obj9.png"",0],[0,0,0,""img/obj12.png"",""img/obj2.png""],[0,0,0,""img/obj6.png"",0],[0,0,0,0,0]]","","","","","","","","","",""
"vsl-grid-scene-snap","226","707667","0.0-5.0-10.0-3.0","","","[[0,0,0,0,0],[""img/obj9.png"",0,0,""img/obj5.png"",0],[0,""img/obj2.png"",""img/obj11.png"",0,0],[""img/obj6.png"",""img/obj8.png"",0,0,0],[0,0,0,0,0]]","","","","","","","","","",""
"vsl-grid-scene-snap","227","710685","0.0-5.0-10.0-4.0","","","[[0,0,""img/obj1.png"",0,0],[0,0,0,""img/obj3.png"",0],[0,0,0,""img/obj9.png"",""img/obj12.png""],[0,0,0,0,""img/obj2.png""],[0,0,0,""img/obj6.png"",0]]","","","","","","","","","",""
"vsl-grid-scene-snap","228","713702","0.0-5.0-10.0-5.0","","","[[0,0,0,0,0],[0,0,""img/obj9.png"",0,0],[0,0,""img/obj7.png"",""img/obj2.png"",0],[0,""img/obj10.png"",""img/obj6.png"",0,0],[0,0,""img/obj4.png"",0,0]]","","","","","","","","","",""
"vsl-grid-scene-snap","229","716715","0.0-5.0-10.0-6.0","","","[[0,0,""img/obj9.png"",""img/obj5.png"",0],[0,0,""img/obj11.png"",""img/obj2.png"",0],[0,""img/obj8.png"",""img/obj6.png"",0,0],[0,0,0,0,0],[0,0,0,0,0]]","","","","","","","","","",""
"vsl-grid-scene-snap","230","719734","0.0-5.0-10.0-7.0","","","[[0,0,0,0,0],[""img/obj1.png"",0,0,0,0],[0,""img/obj3.png"",""img/obj9.png"",0,0],[0,0,""img/obj12.png"",""img/obj2.png"",0],[0,0,""img/obj6.png"",0,0]]","","","","","","","","","",""
"vsl-grid-scene-snap","231","722756","0.0-5.0-10.0-8.0","","","[[0,0,0,0,0],[0,0,0,""img/obj7.png"",0],[0,0,""img/obj10.png"",""img/obj5.png"",0],[0,0,""img/obj11.png"",""img/obj4.png"",0],[0,""img/obj8.png"",0,0,0]]","","","","","","","","","",""
"vsl-grid-scene-snap","232","725779","0.0-5.0-10.0-9.0","","","[[0,""img/obj1.png"",""img/obj7.png"",0,0],[0,""img/obj10.png"",""img/obj3.png"",0,0],[0,0,""img/obj4.png"",""img/obj12.png"",0],[0,0,0,0,0],[0,0,0,0,0]]","","","","","","","","","",""
"vsl-grid-scene-snap","233","728790","0.0-5.0-10.0-10.0","","","[[0,0,""img/obj1.png"",0,0],[0,0,0,""img/obj3.png"",""img/obj7.png""],[0,0,0,""img/obj10.png"",""img/obj12.png""],[0,0,0,0,""img/obj4.png""],[0,0,0,0,0]]","","","","","","","","","",""
"vsl-grid-scene-snap","234","731803","0.0-5.0-10.0-11.0","","","[[0,0,0,0,0],[0,0,""img/obj7.png"",0,0],[""img/obj1.png"",""img/obj10.png"",0,0,0],[0,""img/obj3.png"",""img/obj4.png"",0,0],[0,0,""img/obj12.png"",0,0]]","","","","","","","","","",""
"vsl-grid-scene-snap","235","734831","0.0-5.0-10.0-12.0","","","[[0,0,""img/obj1.png"",0,0],[0,0,0,""img/obj3.png"",""img/obj5.png""],[0,0,0,""img/obj11.png"",""img/obj12.png""],[0,0,""img/obj8.png"",0,0],[0,0,0,0,0]]","","","","","","","","","",""
"vsl-grid-scene-snap","236","737849","0.0-5.0-10.0-13.0","","","[[0,0,0,0,""img/obj7.png""],[0,0,""img/obj9.png"",""img/obj10.png"",0],[0,0,0,""img/obj2.png"",""img/obj4.png""],[0,0,""img/obj6.png"",0,0],[0,0,0,0,0]]","","","","","","","","","",""
"vsl-grid-scene-snap","237","740864","0.0-5.0-10.0-14.0","","","[[0,0,0,""img/obj7.png"",0],[0,0,""img/obj10.png"",""img/obj5.png"",0],[0,0,""img/obj11.png"",""img/obj4.png"",0],[0,""img/obj8.png"",0,0,0],[0,0,0,0,0]]","","","","","","","","","",""
"vsl-grid-scene-snap","238","743874","0.0-5.0-10.0-15.0","","","[[0,0,0,0,0],[0,0,0,""img/obj7.png"",0],[0,""img/obj9.png"",""img/obj10.png"",0,0],[0,0,""img/obj2.png"",""img/obj4.png"",0],[0,""img/obj6.png"",0,0,0]]","","","","","","","","","",""
"html-keyboard-response","239","745899","0.0-6.0-0.0","","null","<p>Your practice session is now over.</p><p>The test session will start in 2 minutes.<p><p>You can use these two minutes to relaxe your eyes.</p><p> <br> </p><p>Seconds remaining:</p><p> <br> </p>120","null","","","","","","","","",""
"html-keyboard-response","240","746909","0.0-6.0-1.0","","null","<p>Your practice session is now over.</p><p>The test session will start in 2 minutes.<p><p>You can use these two minutes to relaxe your eyes.</p><p> <br> </p><p>Seconds remaining:</p><p> <br> </p>119","null","","","","","","","","",""
"html-keyboard-response","241","747911","0.0-6.0-2.0","","null","<p>Your practice session is now over.</p><p>The test session will start in 2 minutes.<p><p>You can use these two minutes to relaxe your eyes.</p><p> <br> </p><p>Seconds remaining:</p><p> <br> </p>118","null","","","","","","","","",""
"html-keyboard-response","242","748925","0.0-6.0-3.0","","null","<p>Your practice session is now over.</p><p>The test session will start in 2 minutes.<p><p>You can use these two minutes to relaxe your eyes.</p><p> <br> </p><p>Seconds remaining:</p><p> <br> </p>117","null","","","","","","","","",""
"html-keyboard-response","243","749936","0.0-6.0-4.0","","null","<p>Your practice session is now over.</p><p>The test session will start in 2 minutes.<p><p>You can use these two minutes to relaxe your eyes.</p><p> <br> </p><p>Seconds remaining:</p><p> <br> </p>116","null","","","","","","","","",""
"html-keyboard-response","244","750943","0.0-6.0-5.0","","null","<p>Your practice session is now over.</p><p>The test session will start in 2 minutes.<p><p>You can use these two minutes to relaxe your eyes.</p><p> <br> </p><p>Seconds remaining:</p><p> <br> </p>115","null","","","","","","","","",""
"html-keyboard-response","245","751956","0.0-6.0-6.0","","null","<p>Your practice session is now over.</p><p>The test session will start in 2 minutes.<p><p>You can use these two minutes to relaxe your eyes.</p><p> <br> </p><p>Seconds remaining:</p><p> <br> </p>114","null","","","","","","","","",""
"html-keyboard-response","246","752966","0.0-6.0-7.0","","null","<p>Your practice session is now over.</p><p>The test session will start in 2 minutes.<p><p>You can use these two minutes to relaxe your eyes.</p><p> <br> </p><p>Seconds remaining:</p><p> <br> </p>113","null","","","","","","","","",""
"html-keyboard-response","247","753974","0.0-6.0-8.0","","null","<p>Your practice session is now over.</p><p>The test session will start in 2 minutes.<p><p>You can use these two minutes to relaxe your eyes.</p><p> <br> </p><p>Seconds remaining:</p><p> <br> </p>112","null","","","","","","","","",""
"html-keyboard-response","248","754983","0.0-6.0-9.0","","null","<p>Your practice session is now over.</p><p>The test session will start in 2 minutes.<p><p>You can use these two minutes to relaxe your eyes.</p><p> <br> </p><p>Seconds remaining:</p><p> <br> </p>111","null","","","","","","","","",""
"html-keyboard-response","249","755992","0.0-6.0-10.0","","null","<p>Your practice session is now over.</p><p>The test session will start in 2 minutes.<p><p>You can use these two minutes to relaxe your eyes.</p><p> <br> </p><p>Seconds remaining:</p><p> <br> </p>110","null","","","","","","","","",""
"html-keyboard-response","250","756995","0.0-6.0-11.0","","null","<p>Your practice session is now over.</p><p>The test session will start in 2 minutes.<p><p>You can use these two minutes to relaxe your eyes.</p><p> <br> </p><p>Seconds remaining:</p><p> <br> </p>109","null","","","","","","","","",""
"html-keyboard-response","251","758010","0.0-6.0-12.0","","null","<p>Your practice session is now over.</p><p>The test session will start in 2 minutes.<p><p>You can use these two minutes to relaxe your eyes.</p><p> <br> </p><p>Seconds remaining:</p><p> <br> </p>108","null","","","","","","","","",""
"html-keyboard-response","252","759024","0.0-6.0-13.0","","null","<p>Your practice session is now over.</p><p>The test session will start in 2 minutes.<p><p>You can use these two minutes to relaxe your eyes.</p><p> <br> </p><p>Seconds remaining:</p><p> <br> </p>107","null","","","","","","","","",""
"html-keyboard-response","253","760032","0.0-6.0-14.0","","null","<p>Your practice session is now over.</p><p>The test session will start in 2 minutes.<p><p>You can use these two minutes to relaxe your eyes.</p><p> <br> </p><p>Seconds remaining:</p><p> <br> </p>106","null","","","","","","","","",""
"html-keyboard-response","254","761044","0.0-6.0-15.0","","null","<p>Your practice session is now over.</p><p>The test session will start in 2 minutes.<p><p>You can use these two minutes to relaxe your eyes.</p><p> <br> </p><p>Seconds remaining:</p><p> <br> </p>105","null","","","","","","","","",""
"html-keyboard-response","255","762050","0.0-6.0-16.0","","null","<p>Your practice session is now over.</p><p>The test session will start in 2 minutes.<p><p>You can use these two minutes to relaxe your eyes.</p><p> <br> </p><p>Seconds remaining:</p><p> <br> </p>104","null","","","","","","","","",""
"html-keyboard-response","256","763056","0.0-6.0-17.0","","null","<p>Your practice session is now over.</p><p>The test session will start in 2 minutes.<p><p>You can use these two minutes to relaxe your eyes.</p><p> <br> </p><p>Seconds remaining:</p><p> <br> </p>103","null","","","","","","","","",""
"html-keyboard-response","257","764067","0.0-6.0-18.0","","null","<p>Your practice session is now over.</p><p>The test session will start in 2 minutes.<p><p>You can use these two minutes to relaxe your eyes.</p><p> <br> </p><p>Seconds remaining:</p><p> <br> </p>102","null","","","","","","","","",""
"html-keyboard-response","258","765082","0.0-6.0-19.0","","null","<p>Your practice session is now over.</p><p>The test session will start in 2 minutes.<p><p>You can use these two minutes to relaxe your eyes.</p><p> <br> </p><p>Seconds remaining:</p><p> <br> </p>101","null","","","","","","","","",""
"html-keyboard-response","259","766099","0.0-6.0-20.0","","null","<p>Your practice session is now over.</p><p>The test session will start in 2 minutes.<p><p>You can use these two minutes to relaxe your eyes.</p><p> <br> </p><p>Seconds remaining:</p><p> <br> </p>100","null","","","","","","","","",""
"html-keyboard-response","260","767103","0.0-6.0-21.0","","null","<p>Your practice session is now over.</p><p>The test session will start in 2 minutes.<p><p>You can use these two minutes to relaxe your eyes.</p><p> <br> </p><p>Seconds remaining:</p><p> <br> </p>99","null","","","","","","","","",""
"html-keyboard-response","261","768111","0.0-6.0-22.0","","null","<p>Your practice session is now over.</p><p>The test session will start in 2 minutes.<p><p>You can use these two minutes to relaxe your eyes.</p><p> <br> </p><p>Seconds remaining:</p><p> <br> </p>98","null","","","","","","","","",""
"html-keyboard-response","262","769117","0.0-6.0-23.0","","null","<p>Your practice session is now over.</p><p>The test session will start in 2 minutes.<p><p>You can use these two minutes to relaxe your eyes.</p><p> <br> </p><p>Seconds remaining:</p><p> <br> </p>97","null","","","","","","","","",""
"html-keyboard-response","263","770120","0.0-6.0-24.0","","null","<p>Your practice session is now over.</p><p>The test session will start in 2 minutes.<p><p>You can use these two minutes to relaxe your eyes.</p><p> <br> </p><p>Seconds remaining:</p><p> <br> </p>96","null","","","","","","","","",""
"html-keyboard-response","264","771122","0.0-6.0-25.0","","null","<p>Your practice session is now over.</p><p>The test session will start in 2 minutes.<p><p>You can use these two minutes to relaxe your eyes.</p><p> <br> </p><p>Seconds remaining:</p><p> <br> </p>95","null","","","","","","","","",""
"html-keyboard-response","265","772127","0.0-6.0-26.0","","null","<p>Your practice session is now over.</p><p>The test session will start in 2 minutes.<p><p>You can use these two minutes to relaxe your eyes.</p><p> <br> </p><p>Seconds remaining:</p><p> <br> </p>94","null","","","","","","","","",""
"html-keyboard-response","266","773142","0.0-6.0-27.0","","null","<p>Your practice session is now over.</p><p>The test session will start in 2 minutes.<p><p>You can use these two minutes to relaxe your eyes.</p><p> <br> </p><p>Seconds remaining:</p><p> <br> </p>93","null","","","","","","","","",""
"html-keyboard-response","267","774151","0.0-6.0-28.0","","null","<p>Your practice session is now over.</p><p>The test session will start in 2 minutes.<p><p>You can use these two minutes to relaxe your eyes.</p><p> <br> </p><p>Seconds remaining:</p><p> <br> </p>92","null","","","","","","","","",""
"html-keyboard-response","268","775153","0.0-6.0-29.0","","null","<p>Your practice session is now over.</p><p>The test session will start in 2 minutes.<p><p>You can use these two minutes to relaxe your eyes.</p><p> <br> </p><p>Seconds remaining:</p><p> <br> </p>91","null","","","","","","","","",""
"html-keyboard-response","269","776159","0.0-6.0-30.0","","null","<p>Your practice session is now over.</p><p>The test session will start in 2 minutes.<p><p>You can use these two minutes to relaxe your eyes.</p><p> <br> </p><p>Seconds remaining:</p><p> <br> </p>90","null","","","","","","","","",""
"html-keyboard-response","270","777176","0.0-6.0-31.0","","null","<p>Your practice session is now over.</p><p>The test session will start in 2 minutes.<p><p>You can use these two minutes to relaxe your eyes.</p><p> <br> </p><p>Seconds remaining:</p><p> <br> </p>89","null","","","","","","","","",""
"html-keyboard-response","271","778183","0.0-6.0-32.0","","null","<p>Your practice session is now over.</p><p>The test session will start in 2 minutes.<p><p>You can use these two minutes to relaxe your eyes.</p><p> <br> </p><p>Seconds remaining:</p><p> <br> </p>88","null","","","","","","","","",""
"html-keyboard-response","272","779185","0.0-6.0-33.0","","null","<p>Your practice session is now over.</p><p>The test session will start in 2 minutes.<p><p>You can use these two minutes to relaxe your eyes.</p><p> <br> </p><p>Seconds remaining:</p><p> <br> </p>87","null","","","","","","","","",""
"html-keyboard-response","273","780202","0.0-6.0-34.0","","null","<p>Your practice session is now over.</p><p>The test session will start in 2 minutes.<p><p>You can use these two minutes to relaxe your eyes.</p><p> <br> </p><p>Seconds remaining:</p><p> <br> </p>86","null","","","","","","","","",""
"html-keyboard-response","274","781210","0.0-6.0-35.0","","null","<p>Your practice session is now over.</p><p>The test session will start in 2 minutes.<p><p>You can use these two minutes to relaxe your eyes.</p><p> <br> </p><p>Seconds remaining:</p><p> <br> </p>85","null","","","","","","","","",""
"html-keyboard-response","275","782218","0.0-6.0-36.0","","null","<p>Your practice session is now over.</p><p>The test session will start in 2 minutes.<p><p>You can use these two minutes to relaxe your eyes.</p><p> <br> </p><p>Seconds remaining:</p><p> <br> </p>84","null","","","","","","","","",""
"html-keyboard-response","276","783230","0.0-6.0-37.0","","null","<p>Your practice session is now over.</p><p>The test session will start in 2 minutes.<p><p>You can use these two minutes to relaxe your eyes.</p><p> <br> </p><p>Seconds remaining:</p><p> <br> </p>83","null","","","","","","","","",""
"html-keyboard-response","277","784231","0.0-6.0-38.0","","null","<p>Your practice session is now over.</p><p>The test session will start in 2 minutes.<p><p>You can use these two minutes to relaxe your eyes.</p><p> <br> </p><p>Seconds remaining:</p><p> <br> </p>82","null","","","","","","","","",""
"html-keyboard-response","278","785247","0.0-6.0-39.0","","null","<p>Your practice session is now over.</p><p>The test session will start in 2 minutes.<p><p>You can use these two minutes to relaxe your eyes.</p><p> <br> </p><p>Seconds remaining:</p><p> <br> </p>81","null","","","","","","","","",""
"html-keyboard-response","279","786254","0.0-6.0-40.0","","null","<p>Your practice session is now over.</p><p>The test session will start in 2 minutes.<p><p>You can use these two minutes to relaxe your eyes.</p><p> <br> </p><p>Seconds remaining:</p><p> <br> </p>80","null","","","","","","","","",""
"html-keyboard-response","280","787256","0.0-6.0-41.0","","null","<p>Your practice session is now over.</p><p>The test session will start in 2 minutes.<p><p>You can use these two minutes to relaxe your eyes.</p><p> <br> </p><p>Seconds remaining:</p><p> <br> </p>79","null","","","","","","","","",""
"html-keyboard-response","281","788266","0.0-6.0-42.0","","null","<p>Your practice session is now over.</p><p>The test session will start in 2 minutes.<p><p>You can use these two minutes to relaxe your eyes.</p><p> <br> </p><p>Seconds remaining:</p><p> <br> </p>78","null","","","","","","","","",""
"html-keyboard-response","282","789281","0.0-6.0-43.0","","null","<p>Your practice session is now over.</p><p>The test session will start in 2 minutes.<p><p>You can use these two minutes to relaxe your eyes.</p><p> <br> </p><p>Seconds remaining:</p><p> <br> </p>77","null","","","","","","","","",""
"html-keyboard-response","283","790297","0.0-6.0-44.0","","null","<p>Your practice session is now over.</p><p>The test session will start in 2 minutes.<p><p>You can use these two minutes to relaxe your eyes.</p><p> <br> </p><p>Seconds remaining:</p><p> <br> </p>76","null","","","","","","","","",""
"html-keyboard-response","284","791313","0.0-6.0-45.0","","null","<p>Your practice session is now over.</p><p>The test session will start in 2 minutes.<p><p>You can use these two minutes to relaxe your eyes.</p><p> <br> </p><p>Seconds remaining:</p><p> <br> </p>75","null","","","","","","","","",""
"html-keyboard-response","285","792315","0.0-6.0-46.0","","null","<p>Your practice session is now over.</p><p>The test session will start in 2 minutes.<p><p>You can use these two minutes to relaxe your eyes.</p><p> <br> </p><p>Seconds remaining:</p><p> <br> </p>74","null","","","","","","","","",""
"html-keyboard-response","286","793323","0.0-6.0-47.0","","null","<p>Your practice session is now over.</p><p>The test session will start in 2 minutes.<p><p>You can use these two minutes to relaxe your eyes.</p><p> <br> </p><p>Seconds remaining:</p><p> <br> </p>73","null","","","","","","","","",""
"html-keyboard-response","287","794324","0.0-6.0-48.0","","null","<p>Your practice session is now over.</p><p>The test session will start in 2 minutes.<p><p>You can use these two minutes to relaxe your eyes.</p><p> <br> </p><p>Seconds remaining:</p><p> <br> </p>72","null","","","","","","","","",""
"html-keyboard-response","288","795332","0.0-6.0-49.0","","null","<p>Your practice session is now over.</p><p>The test session will start in 2 minutes.<p><p>You can use these two minutes to relaxe your eyes.</p><p> <br> </p><p>Seconds remaining:</p><p> <br> </p>71","null","","","","","","","","",""
"html-keyboard-response","289","796347","0.0-6.0-50.0","","null","<p>Your practice session is now over.</p><p>The test session will start in 2 minutes.<p><p>You can use these two minutes to relaxe your eyes.</p><p> <br> </p><p>Seconds remaining:</p><p> <br> </p>70","null","","","","","","","","",""
"html-keyboard-response","290","797349","0.0-6.0-51.0","","null","<p>Your practice session is now over.</p><p>The test session will start in 2 minutes.<p><p>You can use these two minutes to relaxe your eyes.</p><p> <br> </p><p>Seconds remaining:</p><p> <br> </p>69","null","","","","","","","","",""
"html-keyboard-response","291","798363","0.0-6.0-52.0","","null","<p>Your practice session is now over.</p><p>The test session will start in 2 minutes.<p><p>You can use these two minutes to relaxe your eyes.</p><p> <br> </p><p>Seconds remaining:</p><p> <br> </p>68","null","","","","","","","","",""
"html-keyboard-response","292","799367","0.0-6.0-53.0","","null","<p>Your practice session is now over.</p><p>The test session will start in 2 minutes.<p><p>You can use these two minutes to relaxe your eyes.</p><p> <br> </p><p>Seconds remaining:</p><p> <br> </p>67","null","","","","","","","","",""
"html-keyboard-response","293","800380","0.0-6.0-54.0","","null","<p>Your practice session is now over.</p><p>The test session will start in 2 minutes.<p><p>You can use these two minutes to relaxe your eyes.</p><p> <br> </p><p>Seconds remaining:</p><p> <br> </p>66","null","","","","","","","","",""
"html-keyboard-response","294","801385","0.0-6.0-55.0","","null","<p>Your practice session is now over.</p><p>The test session will start in 2 minutes.<p><p>You can use these two minutes to relaxe your eyes.</p><p> <br> </p><p>Seconds remaining:</p><p> <br> </p>65","null","","","","","","","","",""
"html-keyboard-response","295","802391","0.0-6.0-56.0","","null","<p>Your practice session is now over.</p><p>The test session will start in 2 minutes.<p><p>You can use these two minutes to relaxe your eyes.</p><p> <br> </p><p>Seconds remaining:</p><p> <br> </p>64","null","","","","","","","","",""
"html-keyboard-response","296","803397","0.0-6.0-57.0","","null","<p>Your practice session is now over.</p><p>The test session will start in 2 minutes.<p><p>You can use these two minutes to relaxe your eyes.</p><p> <br> </p><p>Seconds remaining:</p><p> <br> </p>63","null","","","","","","","","",""
"html-keyboard-response","297","804400","0.0-6.0-58.0","","null","<p>Your practice session is now over.</p><p>The test session will start in 2 minutes.<p><p>You can use these two minutes to relaxe your eyes.</p><p> <br> </p><p>Seconds remaining:</p><p> <br> </p>62","null","","","","","","","","",""
"html-keyboard-response","298","805415","0.0-6.0-59.0","","null","<p>Your practice session is now over.</p><p>The test session will start in 2 minutes.<p><p>You can use these two minutes to relaxe your eyes.</p><p> <br> </p><p>Seconds remaining:</p><p> <br> </p>61","null","","","","","","","","",""
"html-keyboard-response","299","806430","0.0-6.0-60.0","","null","<p>Your practice session is now over.</p><p>The test session will start in 2 minutes.<p><p>You can use these two minutes to relaxe your eyes.</p><p> <br> </p><p>Seconds remaining:</p><p> <br> </p>60","null","","","","","","","","",""
"html-keyboard-response","300","807440","0.0-6.0-61.0","","null","<p>Your practice session is now over.</p><p>The test session will start in 2 minutes.<p><p>You can use these two minutes to relaxe your eyes.</p><p> <br> </p><p>Seconds remaining:</p><p> <br> </p>59","null","","","","","","","","",""
"html-keyboard-response","301","808456","0.0-6.0-62.0","","null","<p>Your practice session is now over.</p><p>The test session will start in 2 minutes.<p><p>You can use these two minutes to relaxe your eyes.</p><p> <br> </p><p>Seconds remaining:</p><p> <br> </p>58","null","","","","","","","","",""
"html-keyboard-response","302","809460","0.0-6.0-63.0","","null","<p>Your practice session is now over.</p><p>The test session will start in 2 minutes.<p><p>You can use these two minutes to relaxe your eyes.</p><p> <br> </p><p>Seconds remaining:</p><p> <br> </p>57","null","","","","","","","","",""
"html-keyboard-response","303","810466","0.0-6.0-64.0","","null","<p>Your practice session is now over.</p><p>The test session will start in 2 minutes.<p><p>You can use these two minutes to relaxe your eyes.</p><p> <br> </p><p>Seconds remaining:</p><p> <br> </p>56","null","","","","","","","","",""
"html-keyboard-response","304","811481","0.0-6.0-65.0","","null","<p>Your practice session is now over.</p><p>The test session will start in 2 minutes.<p><p>You can use these two minutes to relaxe your eyes.</p><p> <br> </p><p>Seconds remaining:</p><p> <br> </p>55","null","","","","","","","","",""
"html-keyboard-response","305","812490","0.0-6.0-66.0","","null","<p>Your practice session is now over.</p><p>The test session will start in 2 minutes.<p><p>You can use these two minutes to relaxe your eyes.</p><p> <br> </p><p>Seconds remaining:</p><p> <br> </p>54","null","","","","","","","","",""
"html-keyboard-response","306","813495","0.0-6.0-67.0","","null","<p>Your practice session is now over.</p><p>The test session will start in 2 minutes.<p><p>You can use these two minutes to relaxe your eyes.</p><p> <br> </p><p>Seconds remaining:</p><p> <br> </p>53","null","","","","","","","","",""
"html-keyboard-response","307","814504","0.0-6.0-68.0","","null","<p>Your practice session is now over.</p><p>The test session will start in 2 minutes.<p><p>You can use these two minutes to relaxe your eyes.</p><p> <br> </p><p>Seconds remaining:</p><p> <br> </p>52","null","","","","","","","","",""
"html-keyboard-response","308","815512","0.0-6.0-69.0","","null","<p>Your practice session is now over.</p><p>The test session will start in 2 minutes.<p><p>You can use these two minutes to relaxe your eyes.</p><p> <br> </p><p>Seconds remaining:</p><p> <br> </p>51","null","","","","","","","","",""
"html-keyboard-response","309","816525","0.0-6.0-70.0","","null","<p>Your practice session is now over.</p><p>The test session will start in 2 minutes.<p><p>You can use these two minutes to relaxe your eyes.</p><p> <br> </p><p>Seconds remaining:</p><p> <br> </p>50","null","","","","","","","","",""
"html-keyboard-response","310","817528","0.0-6.0-71.0","","null","<p>Your practice session is now over.</p><p>The test session will start in 2 minutes.<p><p>You can use these two minutes to relaxe your eyes.</p><p> <br> </p><p>Seconds remaining:</p><p> <br> </p>49","null","","","","","","","","",""
"html-keyboard-response","311","818542","0.0-6.0-72.0","","null","<p>Your practice session is now over.</p><p>The test session will start in 2 minutes.<p><p>You can use these two minutes to relaxe your eyes.</p><p> <br> </p><p>Seconds remaining:</p><p> <br> </p>48","null","","","","","","","","",""
"html-keyboard-response","312","819551","0.0-6.0-73.0","","null","<p>Your practice session is now over.</p><p>The test session will start in 2 minutes.<p><p>You can use these two minutes to relaxe your eyes.</p><p> <br> </p><p>Seconds remaining:</p><p> <br> </p>47","null","","","","","","","","",""
"html-keyboard-response","313","820556","0.0-6.0-74.0","","null","<p>Your practice session is now over.</p><p>The test session will start in 2 minutes.<p><p>You can use these two minutes to relaxe your eyes.</p><p> <br> </p><p>Seconds remaining:</p><p> <br> </p>46","null","","","","","","","","",""
"html-keyboard-response","314","821566","0.0-6.0-75.0","","null","<p>Your practice session is now over.</p><p>The test session will start in 2 minutes.<p><p>You can use these two minutes to relaxe your eyes.</p><p> <br> </p><p>Seconds remaining:</p><p> <br> </p>45","null","","","","","","","","",""
"html-keyboard-response","315","822575","0.0-6.0-76.0","","null","<p>Your practice session is now over.</p><p>The test session will start in 2 minutes.<p><p>You can use these two minutes to relaxe your eyes.</p><p> <br> </p><p>Seconds remaining:</p><p> <br> </p>44","null","","","","","","","","",""
"html-keyboard-response","316","823579","0.0-6.0-77.0","","null","<p>Your practice session is now over.</p><p>The test session will start in 2 minutes.<p><p>You can use these two minutes to relaxe your eyes.</p><p> <br> </p><p>Seconds remaining:</p><p> <br> </p>43","null","","","","","","","","",""
"html-keyboard-response","317","824595","0.0-6.0-78.0","","null","<p>Your practice session is now over.</p><p>The test session will start in 2 minutes.<p><p>You can use these two minutes to relaxe your eyes.</p><p> <br> </p><p>Seconds remaining:</p><p> <br> </p>42","null","","","","","","","","",""
"html-keyboard-response","318","825604","0.0-6.0-79.0","","null","<p>Your practice session is now over.</p><p>The test session will start in 2 minutes.<p><p>You can use these two minutes to relaxe your eyes.</p><p> <br> </p><p>Seconds remaining:</p><p> <br> </p>41","null","","","","","","","","",""
"html-keyboard-response","319","826606","0.0-6.0-80.0","","null","<p>Your practice session is now over.</p><p>The test session will start in 2 minutes.<p><p>You can use these two minutes to relaxe your eyes.</p><p> <br> </p><p>Seconds remaining:</p><p> <br> </p>40","null","","","","","","","","",""
"html-keyboard-response","320","827622","0.0-6.0-81.0","","null","<p>Your practice session is now over.</p><p>The test session will start in 2 minutes.<p><p>You can use these two minutes to relaxe your eyes.</p><p> <br> </p><p>Seconds remaining:</p><p> <br> </p>39","null","","","","","","","","",""
"html-keyboard-response","321","828629","0.0-6.0-82.0","","null","<p>Your practice session is now over.</p><p>The test session will start in 2 minutes.<p><p>You can use these two minutes to relaxe your eyes.</p><p> <br> </p><p>Seconds remaining:</p><p> <br> </p>38","null","","","","","","","","",""
"html-keyboard-response","322","829637","0.0-6.0-83.0","","null","<p>Your practice session is now over.</p><p>The test session will start in 2 minutes.<p><p>You can use these two minutes to relaxe your eyes.</p><p> <br> </p><p>Seconds remaining:</p><p> <br> </p>37","null","","","","","","","","",""
"html-keyboard-response","323","830641","0.0-6.0-84.0","","null","<p>Your practice session is now over.</p><p>The test session will start in 2 minutes.<p><p>You can use these two minutes to relaxe your eyes.</p><p> <br> </p><p>Seconds remaining:</p><p> <br> </p>36","null","","","","","","","","",""
"html-keyboard-response","324","831643","0.0-6.0-85.0","","null","<p>Your practice session is now over.</p><p>The test session will start in 2 minutes.<p><p>You can use these two minutes to relaxe your eyes.</p><p> <br> </p><p>Seconds remaining:</p><p> <br> </p>35","null","","","","","","","","",""
"html-keyboard-response","325","832645","0.0-6.0-86.0","","null","<p>Your practice session is now over.</p><p>The test session will start in 2 minutes.<p><p>You can use these two minutes to relaxe your eyes.</p><p> <br> </p><p>Seconds remaining:</p><p> <br> </p>34","null","","","","","","","","",""
"html-keyboard-response","326","833647","0.0-6.0-87.0","","null","<p>Your practice session is now over.</p><p>The test session will start in 2 minutes.<p><p>You can use these two minutes to relaxe your eyes.</p><p> <br> </p><p>Seconds remaining:</p><p> <br> </p>33","null","","","","","","","","",""
"html-keyboard-response","327","834653","0.0-6.0-88.0","","null","<p>Your practice session is now over.</p><p>The test session will start in 2 minutes.<p><p>You can use these two minutes to relaxe your eyes.</p><p> <br> </p><p>Seconds remaining:</p><p> <br> </p>32","null","","","","","","","","",""
"html-keyboard-response","328","835664","0.0-6.0-89.0","","null","<p>Your practice session is now over.</p><p>The test session will start in 2 minutes.<p><p>You can use these two minutes to relaxe your eyes.</p><p> <br> </p><p>Seconds remaining:</p><p> <br> </p>31","null","","","","","","","","",""
"html-keyboard-response","329","836678","0.0-6.0-90.0","","null","<p>Your practice session is now over.</p><p>The test session will start in 2 minutes.<p><p>You can use these two minutes to relaxe your eyes.</p><p> <br> </p><p>Seconds remaining:</p><p> <br> </p>30","null","","","","","","","","",""
"html-keyboard-response","330","837690","0.0-6.0-91.0","","null","<p>Your practice session is now over.</p><p>The test session will start in 2 minutes.<p><p>You can use these two minutes to relaxe your eyes.</p><p> <br> </p><p>Seconds remaining:</p><p> <br> </p>29","null","","","","","","","","",""
"html-keyboard-response","331","838697","0.0-6.0-92.0","","null","<p>Your practice session is now over.</p><p>The test session will start in 2 minutes.<p><p>You can use these two minutes to relaxe your eyes.</p><p> <br> </p><p>Seconds remaining:</p><p> <br> </p>28","null","","","","","","","","",""
"html-keyboard-response","332","839702","0.0-6.0-93.0","","null","<p>Your practice session is now over.</p><p>The test session will start in 2 minutes.<p><p>You can use these two minutes to relaxe your eyes.</p><p> <br> </p><p>Seconds remaining:</p><p> <br> </p>27","null","","","","","","","","",""
"html-keyboard-response","333","840713","0.0-6.0-94.0","","null","<p>Your practice session is now over.</p><p>The test session will start in 2 minutes.<p><p>You can use these two minutes to relaxe your eyes.</p><p> <br> </p><p>Seconds remaining:</p><p> <br> </p>26","null","","","","","","","","",""
"html-keyboard-response","334","841715","0.0-6.0-95.0","","null","<p>Your practice session is now over.</p><p>The test session will start in 2 minutes.<p><p>You can use these two minutes to relaxe your eyes.</p><p> <br> </p><p>Seconds remaining:</p><p> <br> </p>25","null","","","","","","","","",""
"html-keyboard-response","335","842720","0.0-6.0-96.0","","null","<p>Your practice session is now over.</p><p>The test session will start in 2 minutes.<p><p>You can use these two minutes to relaxe your eyes.</p><p> <br> </p><p>Seconds remaining:</p><p> <br> </p>24","null","","","","","","","","",""
"html-keyboard-response","336","843728","0.0-6.0-97.0","","null","<p>Your practice session is now over.</p><p>The test session will start in 2 minutes.<p><p>You can use these two minutes to relaxe your eyes.</p><p> <br> </p><p>Seconds remaining:</p><p> <br> </p>23","null","","","","","","","","",""
"html-keyboard-response","337","844744","0.0-6.0-98.0","","null","<p>Your practice session is now over.</p><p>The test session will start in 2 minutes.<p><p>You can use these two minutes to relaxe your eyes.</p><p> <br> </p><p>Seconds remaining:</p><p> <br> </p>22","null","","","","","","","","",""
"html-keyboard-response","338","845757","0.0-6.0-99.0","","null","<p>Your practice session is now over.</p><p>The test session will start in 2 minutes.<p><p>You can use these two minutes to relaxe your eyes.</p><p> <br> </p><p>Seconds remaining:</p><p> <br> </p>21","null","","","","","","","","",""
"html-keyboard-response","339","846760","0.0-6.0-100.0","","null","<p>Your practice session is now over.</p><p>The test session will start in 2 minutes.<p><p>You can use these two minutes to relaxe your eyes.</p><p> <br> </p><p>Seconds remaining:</p><p> <br> </p>20","null","","","","","","","","",""
"html-keyboard-response","340","847762","0.0-6.0-101.0","","null","<p>Your practice session is now over.</p><p>The test session will start in 2 minutes.<p><p>You can use these two minutes to relaxe your eyes.</p><p> <br> </p><p>Seconds remaining:</p><p> <br> </p>19","null","","","","","","","","",""
"html-keyboard-response","341","848773","0.0-6.0-102.0","","null","<p>Your practice session is now over.</p><p>The test session will start in 2 minutes.<p><p>You can use these two minutes to relaxe your eyes.</p><p> <br> </p><p>Seconds remaining:</p><p> <br> </p>18","null","","","","","","","","",""
"html-keyboard-response","342","849777","0.0-6.0-103.0","","null","<p>Your practice session is now over.</p><p>The test session will start in 2 minutes.<p><p>You can use these two minutes to relaxe your eyes.</p><p> <br> </p><p>Seconds remaining:</p><p> <br> </p>17","null","","","","","","","","",""
"html-keyboard-response","343","850788","0.0-6.0-104.0","","null","<p>Your practice session is now over.</p><p>The test session will start in 2 minutes.<p><p>You can use these two minutes to relaxe your eyes.</p><p> <br> </p><p>Seconds remaining:</p><p> <br> </p>16","null","","","","","","","","",""
"html-keyboard-response","344","851796","0.0-6.0-105.0","","null","<p>Your practice session is now over.</p><p>The test session will start in 2 minutes.<p><p>You can use these two minutes to relaxe your eyes.</p><p> <br> </p><p>Seconds remaining:</p><p> <br> </p>15","null","","","","","","","","",""
"html-keyboard-response","345","852807","0.0-6.0-106.0","","null","<p>Your practice session is now over.</p><p>The test session will start in 2 minutes.<p><p>You can use these two minutes to relaxe your eyes.</p><p> <br> </p><p>Seconds remaining:</p><p> <br> </p>14","null","","","","","","","","",""
"html-keyboard-response","346","853809","0.0-6.0-107.0","","null","<p>Your practice session is now over.</p><p>The test session will start in 2 minutes.<p><p>You can use these two minutes to relaxe your eyes.</p><p> <br> </p><p>Seconds remaining:</p><p> <br> </p>13","null","","","","","","","","",""
"html-keyboard-response","347","854819","0.0-6.0-108.0","","null","<p>Your practice session is now over.</p><p>The test session will start in 2 minutes.<p><p>You can use these two minutes to relaxe your eyes.</p><p> <br> </p><p>Seconds remaining:</p><p> <br> </p>12","null","","","","","","","","",""
"html-keyboard-response","348","855826","0.0-6.0-109.0","","null","<p>Your practice session is now over.</p><p>The test session will start in 2 minutes.<p><p>You can use these two minutes to relaxe your eyes.</p><p> <br> </p><p>Seconds remaining:</p><p> <br> </p>11","null","","","","","","","","",""
"html-keyboard-response","349","856835","0.0-6.0-110.0","","null","<p>Your practice session is now over.</p><p>The test session will start in 2 minutes.<p><p>You can use these two minutes to relaxe your eyes.</p><p> <br> </p><p>Seconds remaining:</p><p> <br> </p>10","null","","","","","","","","",""
"html-keyboard-response","350","857843","0.0-6.0-111.0","","null","<p>Your practice session is now over.</p><p>The test session will start in 2 minutes.<p><p>You can use these two minutes to relaxe your eyes.</p><p> <br> </p><p>Seconds remaining:</p><p> <br> </p>9","null","","","","","","","","",""
"html-keyboard-response","351","858852","0.0-6.0-112.0","","null","<p>Your practice session is now over.</p><p>The test session will start in 2 minutes.<p><p>You can use these two minutes to relaxe your eyes.</p><p> <br> </p><p>Seconds remaining:</p><p> <br> </p>8","null","","","","","","","","",""
"html-keyboard-response","352","859864","0.0-6.0-113.0","","null","<p>Your practice session is now over.</p><p>The test session will start in 2 minutes.<p><p>You can use these two minutes to relaxe your eyes.</p><p> <br> </p><p>Seconds remaining:</p><p> <br> </p>7","null","","","","","","","","",""
"html-keyboard-response","353","860874","0.0-6.0-114.0","","null","<p>Your practice session is now over.</p><p>The test session will start in 2 minutes.<p><p>You can use these two minutes to relaxe your eyes.</p><p> <br> </p><p>Seconds remaining:</p><p> <br> </p>6","null","","","","","","","","",""
"html-keyboard-response","354","861877","0.0-6.0-115.0","","null","<p>Your practice session is now over.</p><p>The test session will start in 2 minutes.<p><p>You can use these two minutes to relaxe your eyes.</p><p> <br> </p><p>Seconds remaining:</p><p> <br> </p>5","null","","","","","","","","",""
"html-keyboard-response","355","862888","0.0-6.0-116.0","","null","<p>Your practice session is now over.</p><p>The test session will start in 2 minutes.<p><p>You can use these two minutes to relaxe your eyes.</p><p> <br> </p><p>Seconds remaining:</p><p> <br> </p>4","null","","","","","","","","",""
"html-keyboard-response","356","863894","0.0-6.0-117.0","","null","<p>Your practice session is now over.</p><p>The test session will start in 2 minutes.<p><p>You can use these two minutes to relaxe your eyes.</p><p> <br> </p><p>Seconds remaining:</p><p> <br> </p>3","null","","","","","","","","",""
"html-keyboard-response","357","864897","0.0-6.0-118.0","","null","<p>Your practice session is now over.</p><p>The test session will start in 2 minutes.<p><p>You can use these two minutes to relaxe your eyes.</p><p> <br> </p><p>Seconds remaining:</p><p> <br> </p>2","null","","","","","","","","",""
"html-keyboard-response","358","865908","0.0-6.0-119.0","","null","<p>Your practice session is now over.</p><p>The test session will start in 2 minutes.<p><p>You can use these two minutes to relaxe your eyes.</p><p> <br> </p><p>Seconds remaining:</p><p> <br> </p>1","null","","","","","","","","",""
"html-keyboard-response","359","896244","0.0-7.0","","30336","<p style=""text-align: justify;margin-left: 15%; margin-right:15%""> This is your test session. You will see 36 trials. In each trial two scenes will appear with one second of pause between them. Your task is to decide which of the two scenes looks more familiar based on the practice session you have just seen. After the second scene a dialog window will appear asking whether the first or the second scene was more familiar. Using the keyboard you should press 1 or 2. <br> Pressing 1 means that the first scene is more familiar. <br> Pressing 2 means that the second scene is more familiar. <br> No other inputs are accepted. <br> It is important that you pay attention to each trial and that you reply to each trial to the best of your knowledge. Always reply either 1 or 2, even if you are unsure. <br><br>Press space bar to begin.<p>"," ","","","","","","","","",""
"vsl-grid-scene-snap","360","898259","0.0-8.0-0.0-0.0-0.0","","","[[0,0,0,0,0],[0,0,0,0,0],[0,0,""img/obj5.png"",0,0],[0,0,0,0,0],[0,0,0,0,0]]","","","","","","","","","",""
"vsl-grid-scene-snap","361","901267","0.0-8.0-0.0-0.0-1.0","","","[[0,0,0,0,0],[0,0,0,0,0],[0,0,""img/obj12.png"",0,0],[0,0,0,0,0],[0,0,0,0,0]]","","","","","","","","","",""
"html-keyboard-response","362","903105","0.0-8.0-0.0-1.0","","826","<p>Was the first (1) or second (2) more familiar?</p><p>Press key (1) or (2)<p>","2","test","1","0","0","1","0","false","",""
"vsl-grid-scene-snap","363","906133","0.0-8.0-1.0-0.0-0.0","","","[[0,0,0,0,0],[0,0,0,0,0],[0,0,""img/obj2.png"",0,0],[0,0,0,0,0],[0,0,0,0,0]]","","","","","","","","","",""
"vsl-grid-scene-snap","364","909145","0.0-8.0-1.0-0.0-1.0","","","[[0,0,0,0,0],[0,0,0,0,0],[0,0,""img/obj7.png"",0,0],[0,0,0,0,0],[0,0,0,0,0]]","","","","","","","","","",""
"html-keyboard-response","365","910869","0.0-8.0-1.0-1.0","","710","<p>Was the first (1) or second (2) more familiar?</p><p>Press key (1) or (2)<p>","1","test","1","1","1","1","0","true","",""
"vsl-grid-scene-snap","366","913886","0.0-8.0-2.0-0.0-0.0","","","[[0,0,0,0,0],[0,0,0,0,0],[0,0,""img/obj8.png"",0,0],[0,0,0,0,0],[0,0,0,0,0]]","","","","","","","","","",""
"vsl-grid-scene-snap","367","916900","0.0-8.0-2.0-0.0-1.0","","","[[0,0,0,0,0],[0,0,0,0,0],[0,0,""img/obj10.png"",0,0],[0,0,0,0,0],[0,0,0,0,0]]","","","","","","","","","",""
"html-keyboard-response","368","918758","0.0-8.0-2.0-1.0","","849","<p>Was the first (1) or second (2) more familiar?</p><p>Press key (1) or (2)<p>","1","test","1","2","2","1","0","true","",""
"vsl-grid-scene-snap","369","921781","0.0-8.0-3.0-0.0-0.0","","","[[0,0,0,0,0],[0,0,0,0,0],[0,0,""img/obj4.png"",0,0],[0,0,0,0,0],[0,0,0,0,0]]","","","","","","","","","",""
"vsl-grid-scene-snap","370","924793","0.0-8.0-3.0-0.0-1.0","","","[[0,0,0,0,0],[0,0,0,0,0],[0,0,""img/obj3.png"",0,0],[0,0,0,0,0],[0,0,0,0,0]]","","","","","","","","","",""
"html-keyboard-response","371","926281","0.0-8.0-3.0-1.0","","479","<p>Was the first (1) or second (2) more familiar?</p><p>Press key (1) or (2)<p>","2","test","1","3","3","1","0","false","",""
"vsl-grid-scene-snap","372","929300","0.0-8.0-4.0-0.0-0.0","","","[[0,0,0,0,0],[0,0,0,0,0],[0,0,""img/obj6.png"",0,0],[0,0,0,0,0],[0,0,0,0,0]]","","","","","","","","","",""
"vsl-grid-scene-snap","373","932320","0.0-8.0-4.0-0.0-1.0","","","[[0,0,0,0,0],[0,0,0,0,0],[0,0,""img/obj1.png"",0,0],[0,0,0,0,0],[0,0,0,0,0]]","","","","","","","","","",""
"html-keyboard-response","374","933767","0.0-8.0-4.0-1.0","","430","<p>Was the first (1) or second (2) more familiar?</p><p>Press key (1) or (2)<p>","2","test","1","4","4","1","0","false","",""
"vsl-grid-scene-snap","375","936786","0.0-8.0-5.0-0.0-0.0","","","[[0,0,0,0,0],[0,0,0,0,0],[0,0,""img/obj9.png"",0,0],[0,0,0,0,0],[0,0,0,0,0]]","","","","","","","","","",""
"vsl-grid-scene-snap","376","939801","0.0-8.0-5.0-0.0-1.0","","","[[0,0,0,0,0],[0,0,0,0,0],[0,0,""img/obj11.png"",0,0],[0,0,0,0,0],[0,0,0,0,0]]","","","","","","","","","",""
"html-keyboard-response","377","941177","0.0-8.0-5.0-1.0","","370","<p>Was the first (1) or second (2) more familiar?</p><p>Press key (1) or (2)<p>","2","test","1","5","5","1","0","false","",""
"vsl-grid-scene-snap","378","944193","0.0-8.0-6.0-0.0-0.0","","","[[0,0,0,0,0],[0,0,0,0,0],[0,0,""img/obj11.png"",0,0],[0,0,0,0,0],[0,0,0,0,0]]","","","","","","","","","",""
"vsl-grid-scene-snap","379","947217","0.0-8.0-6.0-0.0-1.0","","","[[0,0,0,0,0],[0,0,0,0,0],[0,0,""img/obj5.png"",0,0],[0,0,0,0,0],[0,0,0,0,0]]","","","","","","","","","",""
"html-keyboard-response","380","948768","0.0-8.0-6.0-1.0","","542","<p>Was the first (1) or second (2) more familiar?</p><p>Press key (1) or (2)<p>","1","test","2","6","6","1","0","false","",""
"vsl-grid-scene-snap","381","951776","0.0-8.0-7.0-0.0-0.0","","","[[0,0,0,0,0],[0,0,0,0,0],[0,0,""img/obj1.png"",0,0],[0,0,0,0,0],[0,0,0,0,0]]","","","","","","","","","",""
