"success","rt","trial_type","trial_index","time_elapsed","internal_node_id","stimulus","response","test_part","correct_response","test_number","test_vector","grid_shift","correct","randomID","subject","image_switchboard","scene_order"
"true","1309","fullscreen","0","2313","0.0-0.0","","","","","","","","","","","",""
"","1571","html-button-response","1","3888","0.0-1.0","<p style=""text-align: justify;margin-left: 15%; margin-right:15%"">You are participating in an experiment at the Vision Lab of the Department of Cognitive Science, Central European University.  One of our main questions is what kind of representations we can create about our visual environment and how these representations influence our behavior. At our lab we use multiple methods, for example behavioral experiments and computational models. In this experiment you will observe scenes consisting of abstract shapes and answer simple questions about them. <br><br>At the beginning and throughout the experiment you will receive precise information about what to do. The experiment takes about 20 minutes in total. <br><br>The test is voluntary, and you can withdraw your participation at any time. We treat your personal information confidentially. <br>Only those people who work on this research project have access to your data. We will work with group level statistics. We will only report the results of the group in scientific publications and conferences. This research was approved by the Hungarian Psychological Research Ethics Committee.<br><br>If you have any further questions about the study, you can contact the experimenter, Beata Tunde Szabo, PhD Student. Contact: 1051 Nador u. 11. E-mail: szabo_beata-tunde@phd.ceu.edu <br><br>By pressing the button below you indicate that you read this information, found it sufficent, and you consent to participate in the experiment. <br><br> </p>","0","","","","","","","","","",""
"","941","html-button-response","2","4830","0.0-2.0","<p style=""text-align: justify;margin-left: 15%; margin-right:15%""> This is your practice session. You will see a checkerboard with random simple shapes appearing in different positions in the checkerboard. Your task is simply to observe the patterns so that you would be able to answer some questions about the sequence after the practice session.  The session will last for about 8 minutes.  Please, pay attention to EACH display! <br><br>Occasionally, there will be an attention check asking you to press the spacebar. ","0","","","","","","","","","",""
"","","vsl-grid-scene-snap-grid-only","3","5835","0.0-3.0-0.0-0.0-0.0","justgrid","","","","","","","","","","",""
"","","vsl-grid-scene-snap","4","7839","0.0-3.0-0.0-0.0-1.0","[[""img/obj4.png"",0,""img/obj12.png""],[0,""img/obj1.png"",""img/obj2.png""],[""img/obj10.png"",""img/obj11.png"",0]]","","","","","","","","","","",""
"","","vsl-grid-scene-snap-grid-only","5","8842","0.0-3.0-0.0-1.0-0.0","justgrid","","","","","","","","","","",""
"","","vsl-grid-scene-snap","6","10845","0.0-3.0-0.0-1.0-1.0","[[""img/obj4.png"",0,0],[""img/obj12.png"",""img/obj1.png"",0],[""img/obj2.png"",""img/obj10.png"",""img/obj11.png""]]","","","","","","","","","","",""
"","null","vsl-grid-attention-check-snap","7","13869","0.0-3.0-1.0-0.0-0.0","","null","","","","","","","","","",""
"","null","vsl-grid-attention-check-snap","8","16895","0.0-3.0-1.0-0.1-0.1","","null","","","","","","","","","",""
"","983","vsl-grid-attention-check-snap","9","17902","0.0-3.0-1.0-0.2-0.2",""," ","","","","","","","","","",""
"","null","html-keyboard-response","10","18905","0.0-3.0-1.0-1.0"," ","null","","","","","","","","","",""
"","null","html-keyboard-response","11","19908","0.0-4.0-0.0","<p>Your practice session is now over.</p><p>The test session will start in 2 minutes.<p><p>You can use these two minutes to relaxe your eyes.</p><p> <br> </p><p>Seconds remaining:</p><p> <br> </p>120","null","","","","","","","","","",""
"","null","html-keyboard-response","12","20910","0.0-4.0-1.0","<p>Your practice session is now over.</p><p>The test session will start in 2 minutes.<p><p>You can use these two minutes to relaxe your eyes.</p><p> <br> </p><p>Seconds remaining:</p><p> <br> </p>119","null","","","","","","","","","",""
"","1273","html-keyboard-response","13","22185","0.0-5.0","<p style=""text-align: justify;margin-left: 15%; margin-right:15%""> This is your test session. You will see 36 trials. In each trial two pairs of shapes will appear with one second of pause between them. Your task is to decide which of the two pairs looks more familiar based on the practice session you have just seen. After the second shape-pair a dialog window will appear asking whether the first or the second pair was more familiar. Using the keyboard you should press 1 or 2. <br> Pressing 1 means that the first shape-pair is more familiar. <br> Pressing 2 means that the second shape-pair is more familiar. <br> No other inputs are accepted. <br> It is important that you pay attention to each trial and that you reply to each trial to the best of your knowledge. Always reply either 1 or 2, even if you are unsure. <br><br>Press space bar to begin.<p>","1","","","","","","","","","",""
"","","vsl-grid-scene-snap","14","24189","0.0-6.0-0.0-0.0-0.0","[[""img/obj6.png"",0,0],[""img/obj3.png"",0,0],[0,0,0]]","","","","","","","","","","",""
"","","vsl-grid-scene-snap","15","26190","0.0-6.0-0.0-0.0-1.0","[[""img/obj2.png"",0,0],[""img/obj11.png"",0,0],[0,0,0]]","","","","","","","","","","",""
"","1004","html-keyboard-response","16","27194","0.0-6.0-0.0-1.0","<p>Was the first (1) or second (2) more familiar?</p><p>Press key (1) or (2)<p>","1","test","1","0","[1,1,1,1,1,1]","-3","true","","","",""
"","","vsl-grid-scene-snap","17","30198","0.0-6.0-1.0-0.0-0.0","[[0,0,0],[0,0,""img/obj10.png""],[0,0,""img/obj12.png""]]","","","","","","","","","","",""
"","","vsl-grid-scene-snap","18","32202","0.0-6.0-1.0-0.0-1.0","[[""img/obj6.png"",0,0],[""img/obj3.png"",0,0],[0,0,0]]","","","","","","","","","","",""
"","1178","html-keyboard-response","19","33381","0.0-6.0-1.0-1.0","<p>Was the first (1) or second (2) more familiar?</p><p>Press key (1) or (2)<p>","1","test","2","1","[1,1,1,3,2,2]","-3","false","","","",""
"","","vsl-grid-scene-snap","20","36386","0.0-6.0-2.0-0.0-0.0","[[""img/obj6.png"",0,0],[""img/obj3.png"",0,0],[0,0,0]]","","","","","","","","","","",""
"","","vsl-grid-scene-snap","21","38389","0.0-6.0-2.0-0.0-1.0","[[0,""img/obj3.png"",""img/obj8.png""],[0,0,0],[0,0,0]]","","","","","","","","","","",""
"","598","html-keyboard-response","22","38988","0.0-6.0-2.0-1.0","<p>Was the first (1) or second (2) more familiar?</p><p>Press key (1) or (2)<p>","1","test","1","2","[1,1,1,2,1,3]","-3","true","","","",""
"","2063","survey-text","23","42060","0.0-7.0","","{""Q0"":""ddd""}","","","","","","","","","",""
"","1255","survey-text","24","43317","0.0-8.0","","{""Q0"":""ddd""}","","","","","","","","","",""
"","1356","survey-text","25","44675","0.0-9.0","","{""Q0"":""ddd""}","","","","","","","","","",""
"","1340","survey-text","26","46017","0.0-10.0","","{""Q0"":""ddd""}","","","","","","","","","",""
"true","null","fullscreen","27","47020","0.0-11.0","","","","","","","","","","","",""
"","1850","html-button-response","28","48872","0.0-12.0","<p style=""text-align: justify; margin-right: 15%; margin-left: 15%"">  This is the end of the experiment. <br><br>Thank you for your participation! <br><br>If you would like any additional information, please email the experimenter at szabo_beata-tunde@phd.ceu.edu <br><br>Please press the button bellow to be redirected to Prolific to collect your credits. <br>","0","","","","","","","nbpz1","","[""img/obj6.png"",""img/obj3.png"",""img/obj12.png"",""img/obj2.png"",""img/obj9.png"",""img/obj5.png"",""img/obj10.png"",""img/obj11.png"",""img/obj8.png"",""img/obj7.png"",""img/obj4.png"",""img/obj1.png""]","[{""timeline"":[{""image_size"":[86,86],""line_px"":1,""post_trial_gap"":0,""grid_size"":[20,20],""stim_scene_start"":[3,7]},{""stimuli"":[[""img/obj4.png"",0,""img/obj12.png""],[0,""img/obj1.png"",""img/obj2.png""],[""img/obj10.png"",""img/obj11.png"",0]],""image_size"":[86,86],""line_px"":1,""post_trial_gap"":0,""grid_size"":[20,20],""stim_scene_start"":[3,7]}]},{""timeline"":[{""image_size"":[86,86],""line_px"":1,""post_trial_gap"":0,""grid_size"":[20,20],""stim_scene_start"":[3,7]},{""stimuli"":[[""img/obj4.png"",0,0],[""img/obj12.png"",""img/obj1.png"",0],[""img/obj2.png"",""img/obj10.png"",""img/obj11.png""]],""image_size"":[86,86],""line_px"":1,""post_trial_gap"":0,""grid_size"":[20,20],""stim_scene_start"":[3,7]}]},{""timeline"":[{""image_size"":[86,86],""line_px"":1,""post_trial_gap"":0,""grid_size"":[20,20],""stim_scene_start"":[3,7]},{""stimuli"":[[""img/obj10.png"",""img/obj11.png"",""img/obj9.png""],[0,""img/obj5.png"",""img/obj6.png""],[0,0,""img/obj3.png""]],""image_size"":[86,86],""line_px"":1,""post_trial_gap"":0,""grid_size"":[20,20],""stim_scene_start"":[3,7]}]},{""timeline"":[{""image_size"":[86,86],""line_px"":1,""post_trial_gap"":0,""grid_size"":[20,20],""stim_scene_start"":[3,7]},{""stimuli"":[[0,""img/obj8.png"",""img/obj7.png""],[""img/obj4.png"",0,""img/obj6.png""],[0,""img/obj1.png"",""img/obj3.png""]],""image_size"":[86,86],""line_px"":1,""post_trial_gap"":0,""grid_size"":[20,20],""stim_scene_start"":[3,7]}]},{""timeline"":[{""image_size"":[86,86],""line_px"":1,""post_trial_gap"":0,""grid_size"":[20,20],""stim_scene_start"":[3,7]},{""stimuli"":[[""img/obj8.png"",""img/obj7.png"",0],[0,""img/obj9.png"",""img/obj12.png""],[""img/obj5.png"",0,""img/obj2.png""]],""image_size"":[86,86],""line_px"":1,""post_trial_gap"":0,""grid_size"":[20,20],""stim_scene_start"":[3,7]}]},{""timeline"":[{""image_size"":[86,86],""line_px"":1,""post_trial_gap"":0,""grid_size"":[20,20],""stim_scene_start"":[3,7]},{""stimuli"":[[""img/obj8.png"",""img/obj7.png"",0],[""img/obj4.png"",0,""img/obj6.png""],[0,""img/obj1.png"",""img/obj3.png""]],""image_size"":[86,86],""line_px"":1,""post_trial_gap"":0,""grid_size"":[20,20],""stim_scene_start"":[3,7]}]},{""timeline"":[{""image_size"":[86,86],""line_px"":1,""post_trial_gap"":0,""grid_size"":[20,20],""stim_scene_start"":[3,7]},{""stimuli"":[[""img/obj6.png"",""img/obj8.png"",""img/obj7.png""],[""img/obj3.png"",0,""img/obj9.png""],[0,""img/obj5.png"",0]],""image_size"":[86,86],""line_px"":1,""post_trial_gap"":0,""grid_size"":[20,20],""stim_scene_start"":[3,7]}]},{""timeline"":[{""image_size"":[86,86],""line_px"":1,""post_trial_gap"":0,""grid_size"":[20,20],""stim_scene_start"":[3,7]},{""stimuli"":[[0,""img/obj9.png"",""img/obj12.png""],[""img/obj5.png"",0,""img/obj2.png""],[0,""img/obj8.png"",""img/obj7.png""]],""image_size"":[86,86],""line_px"":1,""post_trial_gap"":0,""grid_size"":[20,20],""stim_scene_start"":[3,7]}]},{""timeline"":[{""image_size"":[86,86],""line_px"":1,""post_trial_gap"":0,""grid_size"":[20,20],""stim_scene_start"":[3,7]},{""stimuli"":[[""img/obj8.png"",""img/obj7.png"",""img/obj6.png""],[0,""img/obj4.png"",""img/obj3.png""],[0,0,""img/obj1.png""]],""image_size"":[86,86],""line_px"":1,""post_trial_gap"":0,""grid_size"":[20,20],""stim_scene_start"":[3,7]}]},{""timeline"":[{""image_size"":[86,86],""line_px"":1,""post_trial_gap"":0,""grid_size"":[20,20],""stim_scene_start"":[3,7]},{""stimuli"":[[""img/obj4.png"",""img/obj10.png"",""img/obj11.png""],[0,""img/obj1.png"",""img/obj6.png""],[0,0,""img/obj3.png""]],""image_size"":[86,86],""line_px"":1,""post_trial_gap"":0,""grid_size"":[20,20],""stim_scene_start"":[3,7]}]},{""timeline"":[{""image_size"":[86,86],""line_px"":1,""post_trial_gap"":0,""grid_size"":[20,20],""stim_scene_start"":[3,7]},{""stimuli"":[[0,0,""img/obj9.png""],[0,""img/obj5.png"",""img/obj6.png""],[""img/obj10.png"",""img/obj11.png"",""img/obj3.png""]],""image_size"":[86,86],""line_px"":1,""post_trial_gap"":0,""grid_size"":[20,20],""stim_scene_start"":[3,7]}]},{""timeline"":[{""image_size"":[86,86],""line_px"":1,""post_trial_gap"":0,""grid_size"":[20,20],""stim_scene_start"":[3,7]},{""stimuli"":[[0,""img/obj8.png"",""img/obj7.png""],[0,""img/obj9.png"",""img/obj6.png""],[""img/obj5.png"",0,""img/obj3.png""]],""image_size"":[86,86],""line_px"":1,""post_trial_gap"":0,""grid_size"":[20,20],""stim_scene_start"":[3,7]}]},{""timeline"":[{""image_size"":[86,86],""line_px"":1,""post_trial_gap"":0,""grid_size"":[20,20],""stim_scene_start"":[3,7]},{""stimuli"":[[""img/obj6.png"",0,0],[""img/obj3.png"",""img/obj9.png"",0],[""img/obj5.png"",""img/obj8.png"",""img/obj7.png""]],""image_size"":[86,86],""line_px"":1,""post_trial_gap"":0,""grid_size"":[20,20],""stim_scene_start"":[3,7]}]},{""timeline"":[{""image_size"":[86,86],""line_px"":1,""post_trial_gap"":0,""grid_size"":[20,20],""stim_scene_start"":[3,7]},{""stimuli"":[[""img/obj10.png"",""img/obj11.png"",0],[""img/obj6.png"",""img/obj4.png"",0],[""img/obj3.png"",0,""img/obj1.png""]],""image_size"":[86,86],""line_px"":1,""post_trial_gap"":0,""grid_size"":[20,20],""stim_scene_start"":[3,7]}]},{""timeline"":[{""image_size"":[86,86],""line_px"":1,""post_trial_gap"":0,""grid_size"":[20,20],""stim_scene_start"":[3,7]},{""stimuli"":[[0,0,""img/obj12.png""],[0,""img/obj9.png"",""img/obj2.png""],[""img/obj5.png"",""img/obj8.png"",""img/obj7.png""]],""image_size"":[86,86],""line_px"":1,""post_trial_gap"":0,""grid_size"":[20,20],""stim_scene_start"":[3,7]}]},{""timeline"":[{""image_size"":[86,86],""line_px"":1,""post_trial_gap"":0,""grid_size"":[20,20],""stim_scene_start"":[3,7]},{""stimuli"":[[""img/obj10.png"",""img/obj11.png"",""img/obj9.png""],[""img/obj12.png"",""img/obj5.png"",0],[""img/obj2.png"",0,0]],""image_size"":[86,86],""line_px"":1,""post_trial_gap"":0,""grid_size"":[20,20],""stim_scene_start"":[3,7]}]},{""timeline"":[{""image_size"":[86,86],""line_px"":1,""post_trial_gap"":0,""grid_size"":[20,20],""stim_scene_start"":[3,7]},{""stimuli"":[[""img/obj10.png"",""img/obj11.png"",0],[""img/obj4.png"",0,""img/obj12.png""],[0,""img/obj1.png"",""img/obj2.png""]],""image_size"":[86,86],""line_px"":1,""post_trial_gap"":0,""grid_size"":[20,20],""stim_scene_start"":[3,7]}]},{""timeline"":[{""image_size"":[86,86],""line_px"":1,""post_trial_gap"":0,""grid_size"":[20,20],""stim_scene_start"":[3,7]},{""stimuli"":[[0,""img/obj8.png"",""img/obj7.png""],[""img/obj6.png"",""img/obj4.png"",0],[""img/obj3.png"",0,""img/obj1.png""]],""image_size"":[86,86],""line_px"":1,""post_trial_gap"":0,""grid_size"":[20,20],""stim_scene_start"":[3,7]}]},{""timeline"":[{""image_size"":[86,86],""line_px"":1,""post_trial_gap"":0,""grid_size"":[20,20],""stim_scene_start"":[3,7]},{""stimuli"":[[0,""img/obj4.png"",0],[""img/obj12.png"",0,""img/obj1.png""],[""img/obj2.png"",""img/obj10.png"",""img/obj11.png""]],""image_size"":[86,86],""line_px"":1,""post_trial_gap"":0,""grid_size"":[20,20],""stim_scene_start"":[3,7]}]},{""timeline"":[{""image_size"":[86,86],""line_px"":1,""post_trial_gap"":0,""grid_size"":[20,20],""stim_scene_start"":[3,7]},{""stimuli"":[[0,""img/obj9.png"",""img/obj6.png""],[""img/obj5.png"",0,""img/obj3.png""],[""img/obj8.png"",""img/obj7.png"",0]],""image_size"":[86,86],""line_px"":1,""post_trial_gap"":0,""grid_size"":[20,20],""stim_scene_start"":[3,7]}]},{""timeline"":[{""image_size"":[86,86],""line_px"":1,""post_trial_gap"":0,""grid_size"":[20,20],""stim_scene_start"":[3,7]},{""stimuli"":[[0,""img/obj9.png"",""img/obj6.png""],[""img/obj5.png"",0,""img/obj3.png""],[""img/obj10.png"",""img/obj11.png"",0]],""image_size"":[86,86],""line_px"":1,""post_trial_gap"":0,""grid_size"":[20,20],""stim_scene_start"":[3,7]}]},{""timeline"":[{""image_size"":[86,86],""line_px"":1,""post_trial_gap"":0,""grid_size"":[20,20],""stim_scene_start"":[3,7]},{""stimuli"":[[""img/obj10.png"",""img/obj11.png"",0],[0,""img/obj9.png"",""img/obj6.png""],[""img/obj5.png"",0,""img/obj3.png""]],""image_size"":[86,86],""line_px"":1,""post_trial_gap"":0,""grid_size"":[20,20],""stim_scene_start"":[3,7]}]},{""timeline"":[{""image_size"":[86,86],""line_px"":1,""post_trial_gap"":0,""grid_size"":[20,20],""stim_scene_start"":[3,7]},{""stimuli"":[[""img/obj12.png"",""img/obj10.png"",""img/obj11.png""],[""img/obj2.png"",""img/obj9.png"",0],[""img/obj5.png"",0,0]],""image_size"":[86,86],""line_px"":1,""post_trial_gap"":0,""grid_size"":[20,20],""stim_scene_start"":[3,7]}]},{""timeline"":[{""image_size"":[86,86],""line_px"":1,""post_trial_gap"":0,""grid_size"":[20,20],""stim_scene_start"":[3,7]},{""stimuli"":[[""img/obj6.png"",""img/obj10.png"",""img/obj11.png""],[""img/obj3.png"",""img/obj4.png"",0],[0,0,""img/obj1.png""]],""image_size"":[86,86],""line_px"":1,""post_trial_gap"":0,""grid_size"":[20,20],""stim_scene_start"":[3,7]}]},{""timeline"":[{""image_size"":[86,86],""line_px"":1,""post_trial_gap"":0,""grid_size"":[20,20],""stim_scene_start"":[3,7]},{""stimuli"":[[""img/obj8.png"",""img/obj7.png"",""img/obj9.png""],[""img/obj6.png"",""img/obj5.png"",0],[""img/obj3.png"",0,0]],""image_size"":[86,86],""line_px"":1,""post_trial_gap"":0,""grid_size"":[20,20],""stim_scene_start"":[3,7]}]},{""timeline"":[{""image_size"":[86,86],""line_px"":1,""post_trial_gap"":0,""grid_size"":[20,20],""stim_scene_start"":[3,7]},{""stimuli"":[[0,0,""img/obj9.png""],[""img/obj12.png"",""img/obj5.png"",0],[""img/obj2.png"",""img/obj8.png"",""img/obj7.png""]],""image_size"":[86,86],""line_px"":1,""post_trial_gap"":0,""grid_size"":[20,20],""stim_scene_start"":[3,7]}]},{""timeline"":[{""image_size"":[86,86],""line_px"":1,""post_trial_gap"":0,""grid_size"":[20,20],""stim_scene_start"":[3,7]},{""stimuli"":[[""img/obj6.png"",""img/obj10.png"",""img/obj11.png""],[""img/obj3.png"",""img/obj9.png"",0],[""img/obj5.png"",0,0]],""image_size"":[86,86],""line_px"":1,""post_trial_gap"":0,""grid_size"":[20,20],""stim_scene_start"":[3,7]}]},{""timeline"":[{""image_size"":[86,86],""line_px"":1,""post_trial_gap"":0,""grid_size"":[20,20],""stim_scene_start"":[3,7]},{""stimuli"":[[""img/obj8.png"",""img/obj7.png"",0],[""img/obj6.png"",0,""img/obj9.png""],[""img/obj3.png"",""img/obj5.png"",0]],""image_size"":[86,86],""line_px"":1,""post_trial_gap"":0,""grid_size"":[20,20],""stim_scene_start"":[3,7]}]},{""timeline"":[{""image_size"":[86,86],""line_px"":1,""post_trial_gap"":0,""grid_size"":[20,20],""stim_scene_start"":[3,7]},{""stimuli"":[[""img/obj4.png"",""img/obj10.png"",""img/obj11.png""],[""img/obj6.png"",""img/obj1.png"",0],[""img/obj3.png"",0,0]],""image_size"":[86,86],""line_px"":1,""post_trial_gap"":0,""grid_size"":[20,20],""stim_scene_start"":[3,7]}]},{""timeline"":[{""image_size"":[86,86],""line_px"":1,""post_trial_gap"":0,""grid_size"":[20,20],""stim_scene_start"":[3,7]},{""stimuli"":[[""img/obj8.png"",""img/obj7.png"",""img/obj9.png""],[""img/obj12.png"",""img/obj5.png"",0],[""img/obj2.png"",0,0]],""image_size"":[86,86],""line_px"":1,""post_trial_gap"":0,""grid_size"":[20,20],""stim_scene_start"":[3,7]}]},{""timeline"":[{""image_size"":[86,86],""line_px"":1,""post_trial_gap"":0,""grid_size"":[20,20],""stim_scene_start"":[3,7]},{""stimuli"":[[0,""img/obj9.png"",""img/obj12.png""],[""img/obj5.png"",0,""img/obj2.png""],[0,""img/obj10.png"",""img/obj11.png""]],""image_size"":[86,86],""line_px"":1,""post_trial_gap"":0,""grid_size"":[20,20],""stim_scene_start"":[3,7]}]},{""timeline"":[{""image_size"":[86,86],""line_px"":1,""post_trial_gap"":0,""grid_size"":[20,20],""stim_scene_start"":[3,7]},{""stimuli"":[[""img/obj8.png"",""img/obj7.png"",0],[""img/obj12.png"",0,""img/obj9.png""],[""img/obj2.png"",""img/obj5.png"",0]],""image_size"":[86,86],""line_px"":1,""post_trial_gap"":0,""grid_size"":[20,20],""stim_scene_start"":[3,7]}]},{""timeline"":[{""image_size"":[86,86],""line_px"":1,""post_trial_gap"":0,""grid_size"":[20,20],""stim_scene_start"":[3,7]},{""stimuli"":[[0,""img/obj8.png"",""img/obj7.png""],[""img/obj12.png"",""img/obj4.png"",0],[""img/obj2.png"",0,""img/obj1.png""]],""image_size"":[86,86],""line_px"":1,""post_trial_gap"":0,""grid_size"":[20,20],""stim_scene_start"":[3,7]}]},{""timeline"":[{""image_size"":[86,86],""line_px"":1,""post_trial_gap"":0,""grid_size"":[20,20],""stim_scene_start"":[3,7]},{""stimuli"":[[""img/obj12.png"",""img/obj8.png"",""img/obj7.png""],[""img/obj2.png"",""img/obj4.png"",0],[0,0,""img/obj1.png""]],""image_size"":[86,86],""line_px"":1,""post_trial_gap"":0,""grid_size"":[20,20],""stim_scene_start"":[3,7]}]},{""timeline"":[{""image_size"":[86,86],""line_px"":1,""post_trial_gap"":0,""grid_size"":[20,20],""stim_scene_start"":[3,7]},{""stimuli"":[[0,""img/obj8.png"",""img/obj7.png""],[""img/obj12.png"",0,""img/obj9.png""],[""img/obj2.png"",""img/obj5.png"",0]],""image_size"":[86,86],""line_px"":1,""post_trial_gap"":0,""grid_size"":[20,20],""stim_scene_start"":[3,7]}]},{""timeline"":[{""image_size"":[86,86],""line_px"":1,""post_trial_gap"":0,""grid_size"":[20,20],""stim_scene_start"":[3,7]},{""stimuli"":[[""img/obj6.png"",0,0],[""img/obj3.png"",""img/obj4.png"",0],[""img/obj8.png"",""img/obj7.png"",""img/obj1.png""]],""image_size"":[86,86],""line_px"":1,""post_trial_gap"":0,""grid_size"":[20,20],""stim_scene_start"":[3,7]}]},{""timeline"":[{""image_size"":[86,86],""line_px"":1,""post_trial_gap"":0,""grid_size"":[20,20],""stim_scene_start"":[3,7]},{""stimuli"":[[0,0,""img/obj9.png""],[0,""img/obj5.png"",""img/obj12.png""],[""img/obj10.png"",""img/obj11.png"",""img/obj2.png""]],""image_size"":[86,86],""line_px"":1,""post_trial_gap"":0,""grid_size"":[20,20],""stim_scene_start"":[3,7]}]},{""timeline"":[{""image_size"":[86,86],""line_px"":1,""post_trial_gap"":0,""grid_size"":[20,20],""stim_scene_start"":[3,7]},{""stimuli"":[[""img/obj6.png"",""img/obj8.png"",""img/obj7.png""],[""img/obj3.png"",""img/obj9.png"",0],[""img/obj5.png"",0,0]],""image_size"":[86,86],""line_px"":1,""post_trial_gap"":0,""grid_size"":[20,20],""stim_scene_start"":[3,7]}]},{""timeline"":[{""image_size"":[86,86],""line_px"":1,""post_trial_gap"":0,""grid_size"":[20,20],""stim_scene_start"":[3,7]},{""stimuli"":[[""img/obj8.png"",""img/obj7.png"",""img/obj12.png""],[0,""img/obj4.png"",""img/obj2.png""],[0,0,""img/obj1.png""]],""image_size"":[86,86],""line_px"":1,""post_trial_gap"":0,""grid_size"":[20,20],""stim_scene_start"":[3,7]}]},{""timeline"":[{""image_size"":[86,86],""line_px"":1,""post_trial_gap"":0,""grid_size"":[20,20],""stim_scene_start"":[3,7]},{""stimuli"":[[0,""img/obj9.png"",""img/obj12.png""],[""img/obj5.png"",0,""img/obj2.png""],[""img/obj8.png"",""img/obj7.png"",0]],""image_size"":[86,86],""line_px"":1,""post_trial_gap"":0,""grid_size"":[20,20],""stim_scene_start"":[3,7]}]},{""timeline"":[{""image_size"":[86,86],""line_px"":1,""post_trial_gap"":0,""grid_size"":[20,20],""stim_scene_start"":[3,7]},{""stimuli"":[[""img/obj4.png"",""img/obj8.png"",""img/obj7.png""],[""img/obj12.png"",""img/obj1.png"",0],[""img/obj2.png"",0,0]],""image_size"":[86,86],""line_px"":1,""post_trial_gap"":0,""grid_size"":[20,20],""stim_scene_start"":[3,7]}]},{""timeline"":[{""image_size"":[86,86],""line_px"":1,""post_trial_gap"":0,""grid_size"":[20,20],""stim_scene_start"":[3,7]},{""stimuli"":[[""img/obj10.png"",""img/obj11.png"",""img/obj9.png""],[""img/obj6.png"",""img/obj5.png"",0],[""img/obj3.png"",0,0]],""image_size"":[86,86],""line_px"":1,""post_trial_gap"":0,""grid_size"":[20,20],""stim_scene_start"":[3,7]}]},{""timeline"":[{""image_size"":[86,86],""line_px"":1,""post_trial_gap"":0,""grid_size"":[20,20],""stim_scene_start"":[3,7]},{""stimuli"":[[0,""img/obj10.png"",""img/obj11.png""],[""img/obj6.png"",0,""img/obj9.png""],[""img/obj3.png"",""img/obj5.png"",0]],""image_size"":[86,86],""line_px"":1,""post_trial_gap"":0,""grid_size"":[20,20],""stim_scene_start"":[3,7]}]},{""timeline"":[{""image_size"":[86,86],""line_px"":1,""post_trial_gap"":0,""grid_size"":[20,20],""stim_scene_start"":[3,7]},{""stimuli"":[[0,""img/obj10.png"",""img/obj11.png""],[0,""img/obj9.png"",""img/obj6.png""],[""img/obj5.png"",0,""img/obj3.png""]],""image_size"":[86,86],""line_px"":1,""post_trial_gap"":0,""grid_size"":[20,20],""stim_scene_start"":[3,7]}]},{""timeline"":[{""image_size"":[86,86],""line_px"":1,""post_trial_gap"":0,""grid_size"":[20,20],""stim_scene_start"":[3,7]},{""stimuli"":[[0,0,""img/obj9.png""],[0,""img/obj5.png"",""img/obj12.png""],[""img/obj8.png"",""img/obj7.png"",""img/obj2.png""]],""image_size"":[86,86],""line_px"":1,""post_trial_gap"":0,""grid_size"":[20,20],""stim_scene_start"":[3,7]}]},{""timeline"":[{""image_size"":[86,86],""line_px"":1,""post_trial_gap"":0,""grid_size"":[20,20],""stim_scene_start"":[3,7]},{""stimuli"":[[""img/obj4.png"",0,""img/obj12.png""],[0,""img/obj1.png"",""img/obj2.png""],[0,""img/obj10.png"",""img/obj11.png""]],""image_size"":[86,86],""line_px"":1,""post_trial_gap"":0,""grid_size"":[20,20],""stim_scene_start"":[3,7]}]},{""timeline"":[{""image_size"":[86,86],""line_px"":1,""post_trial_gap"":0,""grid_size"":[20,20],""stim_scene_start"":[3,7]},{""stimuli"":[[0,""img/obj10.png"",""img/obj11.png""],[""img/obj12.png"",0,""img/obj9.png""],[""img/obj2.png"",""img/obj5.png"",0]],""image_size"":[86,86],""line_px"":1,""post_trial_gap"":0,""grid_size"":[20,20],""stim_scene_start"":[3,7]}]},{""timeline"":[{""image_size"":[86,86],""line_px"":1,""post_trial_gap"":0,""grid_size"":[20,20],""stim_scene_start"":[3,7]},{""stimuli"":[[""img/obj12.png"",0,""img/obj9.png""],[""img/obj2.png"",""img/obj5.png"",0],[""img/obj8.png"",""img/obj7.png"",0]],""image_size"":[86,86],""line_px"":1,""post_trial_gap"":0,""grid_size"":[20,20],""stim_scene_start"":[3,7]}]},{""timeline"":[{""image_size"":[86,86],""line_px"":1,""post_trial_gap"":0,""grid_size"":[20,20],""stim_scene_start"":[3,7]},{""stimuli"":[[""img/obj6.png"",0,""img/obj9.png""],[""img/obj3.png"",""img/obj5.png"",0],[0,""img/obj10.png"",""img/obj11.png""]],""image_size"":[86,86],""line_px"":1,""post_trial_gap"":0,""grid_size"":[20,20],""stim_scene_start"":[3,7]}]},{""timeline"":[{""image_size"":[86,86],""line_px"":1,""post_trial_gap"":0,""grid_size"":[20,20],""stim_scene_start"":[3,7]},{""stimuli"":[[""img/obj4.png"",""img/obj10.png"",""img/obj11.png""],[0,""img/obj1.png"",""img/obj12.png""],[0,0,""img/obj2.png""]],""image_size"":[86,86],""line_px"":1,""post_trial_gap"":0,""grid_size"":[20,20],""stim_scene_start"":[3,7]}]},{""timeline"":[{""image_size"":[86,86],""line_px"":1,""post_trial_gap"":0,""grid_size"":[20,20],""stim_scene_start"":[3,7]},{""stimuli"":[[0,""img/obj8.png"",""img/obj7.png""],[0,""img/obj9.png"",""img/obj12.png""],[""img/obj5.png"",0,""img/obj2.png""]],""image_size"":[86,86],""line_px"":1,""post_trial_gap"":0,""grid_size"":[20,20],""stim_scene_start"":[3,7]}]},{""timeline"":[{""image_size"":[86,86],""line_px"":1,""post_trial_gap"":0,""grid_size"":[20,20],""stim_scene_start"":[3,7]},{""stimuli"":[[""img/obj12.png"",0,0],[""img/obj2.png"",""img/obj9.png"",0],[""img/obj5.png"",""img/obj10.png"",""img/obj11.png""]],""image_size"":[86,86],""line_px"":1,""post_trial_gap"":0,""grid_size"":[20,20],""stim_scene_start"":[3,7]}]},{""timeline"":[{""image_size"":[86,86],""line_px"":1,""post_trial_gap"":0,""grid_size"":[20,20],""stim_scene_start"":[3,7]},{""stimuli"":[[""img/obj4.png"",0,""img/obj6.png""],[0,""img/obj1.png"",""img/obj3.png""],[0,""img/obj10.png"",""img/obj11.png""]],""image_size"":[86,86],""line_px"":1,""post_trial_gap"":0,""grid_size"":[20,20],""stim_scene_start"":[3,7]}]},{""timeline"":[{""image_size"":[86,86],""line_px"":1,""post_trial_gap"":0,""grid_size"":[20,20],""stim_scene_start"":[3,7]},{""stimuli"":[[""img/obj4.png"",""img/obj8.png"",""img/obj7.png""],[""img/obj6.png"",""img/obj1.png"",0],[""img/obj3.png"",0,0]],""image_size"":[86,86],""line_px"":1,""post_trial_gap"":0,""grid_size"":[20,20],""stim_scene_start"":[3,7]}]},{""timeline"":[{""image_size"":[86,86],""line_px"":1,""post_trial_gap"":0,""grid_size"":[20,20],""stim_scene_start"":[3,7]},{""stimuli"":[[0,""img/obj4.png"",0],[""img/obj6.png"",0,""img/obj1.png""],[""img/obj3.png"",""img/obj10.png"",""img/obj11.png""]],""image_size"":[86,86],""line_px"":1,""post_trial_gap"":0,""grid_size"":[20,20],""stim_scene_start"":[3,7]}]},{""timeline"":[{""image_size"":[86,86],""line_px"":1,""post_trial_gap"":0,""grid_size"":[20,20],""stim_scene_start"":[3,7]},{""stimuli"":[[""img/obj4.png"",0,""img/obj6.png""],[0,""img/obj1.png"",""img/obj3.png""],[""img/obj10.png"",""img/obj11.png"",0]],""image_size"":[86,86],""line_px"":1,""post_trial_gap"":0,""grid_size"":[20,20],""stim_scene_start"":[3,7]}]},{""timeline"":[{""image_size"":[86,86],""line_px"":1,""post_trial_gap"":0,""grid_size"":[20,20],""stim_scene_start"":[3,7]},{""stimuli"":[[""img/obj10.png"",""img/obj11.png"",""img/obj9.png""],[0,""img/obj5.png"",""img/obj12.png""],[0,0,""img/obj2.png""]],""image_size"":[86,86],""line_px"":1,""post_trial_gap"":0,""grid_size"":[20,20],""stim_scene_start"":[3,7]}]},{""timeline"":[{""image_size"":[86,86],""line_px"":1,""post_trial_gap"":0,""grid_size"":[20,20],""stim_scene_start"":[3,7]},{""stimuli"":[[""img/obj8.png"",""img/obj7.png"",""img/obj9.png""],[0,""img/obj5.png"",""img/obj12.png""],[0,0,""img/obj2.png""]],""image_size"":[86,86],""line_px"":1,""post_trial_gap"":0,""grid_size"":[20,20],""stim_scene_start"":[3,7]}]},{""timeline"":[{""image_size"":[86,86],""line_px"":1,""post_trial_gap"":0,""grid_size"":[20,20],""stim_scene_start"":[3,7]},{""stimuli"":[[0,""img/obj10.png"",""img/obj11.png""],[0,""img/obj9.png"",""img/obj12.png""],[""img/obj5.png"",0,""img/obj2.png""]],""image_size"":[86,86],""line_px"":1,""post_trial_gap"":0,""grid_size"":[20,20],""stim_scene_start"":[3,7]}]},{""timeline"":[{""image_size"":[86,86],""line_px"":1,""post_trial_gap"":0,""grid_size"":[20,20],""stim_scene_start"":[3,7]},{""stimuli"":[[""img/obj10.png"",""img/obj11.png"",""img/obj6.png""],[0,""img/obj4.png"",""img/obj3.png""],[0,0,""img/obj1.png""]],""image_size"":[86,86],""line_px"":1,""post_trial_gap"":0,""grid_size"":[20,20],""stim_scene_start"":[3,7]}]},{""timeline"":[{""image_size"":[86,86],""line_px"":1,""post_trial_gap"":0,""grid_size"":[20,20],""stim_scene_start"":[3,7]},{""stimuli"":[[0,0,""img/obj12.png""],[0,""img/obj4.png"",""img/obj2.png""],[""img/obj8.png"",""img/obj7.png"",""img/obj1.png""]],""image_size"":[86,86],""line_px"":1,""post_trial_gap"":0,""grid_size"":[20,20],""stim_scene_start"":[3,7]}]},{""timeline"":[{""image_size"":[86,86],""line_px"":1,""post_trial_gap"":0,""grid_size"":[20,20],""stim_scene_start"":[3,7]},{""stimuli"":[[0,""img/obj9.png"",""img/obj6.png""],[""img/obj5.png"",0,""img/obj3.png""],[0,""img/obj8.png"",""img/obj7.png""]],""image_size"":[86,86],""line_px"":1,""post_trial_gap"":0,""grid_size"":[20,20],""stim_scene_start"":[3,7]}]},{""timeline"":[{""image_size"":[86,86],""line_px"":1,""post_trial_gap"":0,""grid_size"":[20,20],""stim_scene_start"":[3,7]},{""stimuli"":[[""img/obj8.png"",""img/obj7.png"",0],[0,""img/obj9.png"",""img/obj6.png""],[""img/obj5.png"",0,""img/obj3.png""]],""image_size"":[86,86],""line_px"":1,""post_trial_gap"":0,""grid_size"":[20,20],""stim_scene_start"":[3,7]}]},{""timeline"":[{""image_size"":[86,86],""line_px"":1,""post_trial_gap"":0,""grid_size"":[20,20],""stim_scene_start"":[3,7]},{""stimuli"":[[0,""img/obj9.png"",0],[""img/obj5.png"",0,""img/obj12.png""],[""img/obj10.png"",""img/obj11.png"",""img/obj2.png""]],""image_size"":[86,86],""line_px"":1,""post_trial_gap"":0,""grid_size"":[20,20],""stim_scene_start"":[3,7]}]},{""timeline"":[{""image_size"":[86,86],""line_px"":1,""post_trial_gap"":0,""grid_size"":[20,20],""stim_scene_start"":[3,7]},{""stimuli"":[[""img/obj10.png"",""img/obj11.png"",0],[""img/obj4.png"",0,""img/obj6.png""],[0,""img/obj1.png"",""img/obj3.png""]],""image_size"":[86,86],""line_px"":1,""post_trial_gap"":0,""grid_size"":[20,20],""stim_scene_start"":[3,7]}]},{""timeline"":[{""image_size"":[86,86],""line_px"":1,""post_trial_gap"":0,""grid_size"":[20,20],""stim_scene_start"":[3,7]},{""stimuli"":[[""img/obj12.png"",0,0],[""img/obj2.png"",""img/obj4.png"",0],[""img/obj10.png"",""img/obj11.png"",""img/obj1.png""]],""image_size"":[86,86],""line_px"":1,""post_trial_gap"":0,""grid_size"":[20,20],""stim_scene_start"":[3,7]}]},{""timeline"":[{""image_size"":[86,86],""line_px"":1,""post_trial_gap"":0,""grid_size"":[20,20],""stim_scene_start"":[3,7]},{""stimuli"":[[""img/obj4.png"",0,0],[0,""img/obj1.png"",""img/obj6.png""],[""img/obj8.png"",""img/obj7.png"",""img/obj3.png""]],""image_size"":[86,86],""line_px"":1,""post_trial_gap"":0,""grid_size"":[20,20],""stim_scene_start"":[3,7]}]},{""timeline"":[{""image_size"":[86,86],""line_px"":1,""post_trial_gap"":0,""grid_size"":[20,20],""stim_scene_start"":[3,7]},{""stimuli"":[[0,""img/obj8.png"",""img/obj7.png""],[""img/obj6.png"",0,""img/obj9.png""],[""img/obj3.png"",""img/obj5.png"",0]],""image_size"":[86,86],""line_px"":1,""post_trial_gap"":0,""grid_size"":[20,20],""stim_scene_start"":[3,7]}]},{""timeline"":[{""image_size"":[86,86],""line_px"":1,""post_trial_gap"":0,""grid_size"":[20,20],""stim_scene_start"":[3,7]},{""stimuli"":[[""img/obj4.png"",0,0],[0,""img/obj1.png"",""img/obj12.png""],[""img/obj8.png"",""img/obj7.png"",""img/obj2.png""]],""image_size"":[86,86],""line_px"":1,""post_trial_gap"":0,""grid_size"":[20,20],""stim_scene_start"":[3,7]}]},{""timeline"":[{""image_size"":[86,86],""line_px"":1,""post_trial_gap"":0,""grid_size"":[20,20],""stim_scene_start"":[3,7]},{""stimuli"":[[""img/obj12.png"",0,0],[""img/obj2.png"",""img/obj9.png"",0],[""img/obj5.png"",""img/obj8.png"",""img/obj7.png""]],""image_size"":[86,86],""line_px"":1,""post_trial_gap"":0,""grid_size"":[20,20],""stim_scene_start"":[3,7]}]},{""timeline"":[{""image_size"":[86,86],""line_px"":1,""post_trial_gap"":0,""grid_size"":[20,20],""stim_scene_start"":[3,7]},{""stimuli"":[[0,""img/obj9.png"",0],[""img/obj5.png"",0,""img/obj12.png""],[""img/obj8.png"",""img/obj7.png"",""img/obj2.png""]],""image_size"":[86,86],""line_px"":1,""post_trial_gap"":0,""grid_size"":[20,20],""stim_scene_start"":[3,7]}]},{""timeline"":[{""image_size"":[86,86],""line_px"":1,""post_trial_gap"":0,""grid_size"":[20,20],""stim_scene_start"":[3,7]},{""stimuli"":[[""img/obj8.png"",""img/obj7.png"",""img/obj12.png""],[0,""img/obj9.png"",""img/obj2.png""],[""img/obj5.png"",0,0]],""image_size"":[86,86],""line_px"":1,""post_trial_gap"":0,""grid_size"":[20,20],""stim_scene_start"":[3,7]}]},{""timeline"":[{""image_size"":[86,86],""line_px"":1,""post_trial_gap"":0,""grid_size"":[20,20],""stim_scene_start"":[3,7]},{""stimuli"":[[""img/obj4.png"",""img/obj8.png"",""img/obj7.png""],[0,""img/obj1.png"",""img/obj12.png""],[0,0,""img/obj2.png""]],""image_size"":[86,86],""line_px"":1,""post_trial_gap"":0,""grid_size"":[20,20],""stim_scene_start"":[3,7]}]},{""timeline"":[{""image_size"":[86,86],""line_px"":1,""post_trial_gap"":0,""grid_size"":[20,20],""stim_scene_start"":[3,7]},{""stimuli"":[[""img/obj10.png"",""img/obj11.png"",""img/obj12.png""],[""img/obj4.png"",0,""img/obj2.png""],[0,""img/obj1.png"",0]],""image_size"":[86,86],""line_px"":1,""post_trial_gap"":0,""grid_size"":[20,20],""stim_scene_start"":[3,7]}]},{""timeline"":[{""image_size"":[86,86],""line_px"":1,""post_trial_gap"":0,""grid_size"":[20,20],""stim_scene_start"":[3,7]},{""stimuli"":[[0,0,""img/obj9.png""],[""img/obj6.png"",""img/obj5.png"",0],[""img/obj3.png"",""img/obj10.png"",""img/obj11.png""]],""image_size"":[86,86],""line_px"":1,""post_trial_gap"":0,""grid_size"":[20,20],""stim_scene_start"":[3,7]}]},{""timeline"":[{""image_size"":[86,86],""line_px"":1,""post_trial_gap"":0,""grid_size"":[20,20],""stim_scene_start"":[3,7]},{""stimuli"":[[0,""img/obj10.png"",""img/obj11.png""],[""img/obj12.png"",""img/obj4.png"",0],[""img/obj2.png"",0,""img/obj1.png""]],""image_size"":[86,86],""line_px"":1,""post_trial_gap"":0,""grid_size"":[20,20],""stim_scene_start"":[3,7]}]},{""timeline"":[{""image_size"":[86,86],""line_px"":1,""post_trial_gap"":0,""grid_size"":[20,20],""stim_scene_start"":[3,7]},{""stimuli"":[[""img/obj12.png"",0,0],[""img/obj2.png"",""img/obj4.png"",0],[""img/obj8.png"",""img/obj7.png"",""img/obj1.png""]],""image_size"":[86,86],""line_px"":1,""post_trial_gap"":0,""grid_size"":[20,20],""stim_scene_start"":[3,7]}]},{""timeline"":[{""image_size"":[86,86],""line_px"":1,""post_trial_gap"":0,""grid_size"":[20,20],""stim_scene_start"":[3,7]},{""stimuli"":[[0,""img/obj8.png"",""img/obj7.png""],[""img/obj4.png"",0,""img/obj12.png""],[0,""img/obj1.png"",""img/obj2.png""]],""image_size"":[86,86],""line_px"":1,""post_trial_gap"":0,""grid_size"":[20,20],""stim_scene_start"":[3,7]}]},{""timeline"":[{""image_size"":[86,86],""line_px"":1,""post_trial_gap"":0,""grid_size"":[20,20],""stim_scene_start"":[3,7]},{""stimuli"":[[""img/obj8.png"",""img/obj7.png"",0],[""img/obj6.png"",""img/obj4.png"",0],[""img/obj3.png"",0,""img/obj1.png""]],""image_size"":[86,86],""line_px"":1,""post_trial_gap"":0,""grid_size"":[20,20],""stim_scene_start"":[3,7]}]},{""timeline"":[{""image_size"":[86,86],""line_px"":1,""post_trial_gap"":0,""grid_size"":[20,20],""stim_scene_start"":[3,7]},{""stimuli"":[[""img/obj10.png"",""img/obj11.png"",""img/obj6.png""],[0,""img/obj9.png"",""img/obj3.png""],[""img/obj5.png"",0,0]],""image_size"":[86,86],""line_px"":1,""post_trial_gap"":0,""grid_size"":[20,20],""stim_scene_start"":[3,7]}]},{""timeline"":[{""image_size"":[86,86],""line_px"":1,""post_trial_gap"":0,""grid_size"":[20,20],""stim_scene_start"":[3,7]},{""stimuli"":[[0,""img/obj4.png"",0],[""img/obj6.png"",0,""img/obj1.png""],[""img/obj3.png"",""img/obj8.png"",""img/obj7.png""]],""image_size"":[86,86],""line_px"":1,""post_trial_gap"":0,""grid_size"":[20,20],""stim_scene_start"":[3,7]}]},{""timeline"":[{""image_size"":[86,86],""line_px"":1,""post_trial_gap"":0,""grid_size"":[20,20],""stim_scene_start"":[3,7]},{""stimuli"":[[""img/obj6.png"",0,0],[""img/obj3.png"",""img/obj9.png"",0],[""img/obj5.png"",""img/obj10.png"",""img/obj11.png""]],""image_size"":[86,86],""line_px"":1,""post_trial_gap"":0,""grid_size"":[20,20],""stim_scene_start"":[3,7]}]},{""timeline"":[{""image_size"":[86,86],""line_px"":1,""post_trial_gap"":0,""grid_size"":[20,20],""stim_scene_start"":[3,7]},{""stimuli"":[[""img/obj4.png"",0,""img/obj6.png""],[0,""img/obj1.png"",""img/obj3.png""],[0,""img/obj8.png"",""img/obj7.png""]],""image_size"":[86,86],""line_px"":1,""post_trial_gap"":0,""grid_size"":[20,20],""stim_scene_start"":[3,7]}]},{""timeline"":[{""image_size"":[86,86],""line_px"":1,""post_trial_gap"":0,""grid_size"":[20,20],""stim_scene_start"":[3,7]},{""stimuli"":[[0,0,""img/obj12.png""],[0,""img/obj4.png"",""img/obj2.png""],[""img/obj10.png"",""img/obj11.png"",""img/obj1.png""]],""image_size"":[86,86],""line_px"":1,""post_trial_gap"":0,""grid_size"":[20,20],""stim_scene_start"":[3,7]}]},{""timeline"":[{""image_size"":[86,86],""line_px"":1,""post_trial_gap"":0,""grid_size"":[20,20],""stim_scene_start"":[3,7]},{""stimuli"":[[""img/obj4.png"",0,0],[""img/obj6.png"",""img/obj1.png"",0],[""img/obj3.png"",""img/obj10.png"",""img/obj11.png""]],""image_size"":[86,86],""line_px"":1,""post_trial_gap"":0,""grid_size"":[20,20],""stim_scene_start"":[3,7]}]},{""timeline"":[{""image_size"":[86,86],""line_px"":1,""post_trial_gap"":0,""grid_size"":[20,20],""stim_scene_start"":[3,7]},{""stimuli"":[[""img/obj6.png"",0,""img/obj9.png""],[""img/obj3.png"",""img/obj5.png"",0],[""img/obj8.png"",""img/obj7.png"",0]],""image_size"":[86,86],""line_px"":1,""post_trial_gap"":0,""grid_size"":[20,20],""stim_scene_start"":[3,7]}]},{""timeline"":[{""image_size"":[86,86],""line_px"":1,""post_trial_gap"":0,""grid_size"":[20,20],""stim_scene_start"":[3,7]},{""stimuli"":[[0,""img/obj10.png"",""img/obj11.png""],[""img/obj6.png"",""img/obj4.png"",0],[""img/obj3.png"",0,""img/obj1.png""]],""image_size"":[86,86],""line_px"":1,""post_trial_gap"":0,""grid_size"":[20,20],""stim_scene_start"":[3,7]}]},{""timeline"":[{""image_size"":[86,86],""line_px"":1,""post_trial_gap"":0,""grid_size"":[20,20],""stim_scene_start"":[3,7]},{""stimuli"":[[""img/obj6.png"",""img/obj4.png"",0],[""img/obj3.png"",0,""img/obj1.png""],[""img/obj8.png"",""img/obj7.png"",0]],""image_size"":[86,86],""line_px"":1,""post_trial_gap"":0,""grid_size"":[20,20],""stim_scene_start"":[3,7]}]},{""timeline"":[{""image_size"":[86,86],""line_px"":1,""post_trial_gap"":0,""grid_size"":[20,20],""stim_scene_start"":[3,7]},{""stimuli"":[[0,""img/obj10.png"",""img/obj11.png""],[""img/obj4.png"",0,""img/obj6.png""],[0,""img/obj1.png"",""img/obj3.png""]],""image_size"":[86,86],""line_px"":1,""post_trial_gap"":0,""grid_size"":[20,20],""stim_scene_start"":[3,7]}]},{""timeline"":[{""image_size"":[86,86],""line_px"":1,""post_trial_gap"":0,""grid_size"":[20,20],""stim_scene_start"":[3,7]},{""stimuli"":[[""img/obj4.png"",""img/obj10.png"",""img/obj11.png""],[""img/obj12.png"",""img/obj1.png"",0],[""img/obj2.png"",0,0]],""image_size"":[86,86],""line_px"":1,""post_trial_gap"":0,""grid_size"":[20,20],""stim_scene_start"":[3,7]}]},{""timeline"":[{""image_size"":[86,86],""line_px"":1,""post_trial_gap"":0,""grid_size"":[20,20],""stim_scene_start"":[3,7]},{""stimuli"":[[""img/obj8.png"",""img/obj7.png"",""img/obj6.png""],[0,""img/obj9.png"",""img/obj3.png""],[""img/obj5.png"",0,0]],""image_size"":[86,86],""line_px"":1,""post_trial_gap"":0,""grid_size"":[20,20],""stim_scene_start"":[3,7]}]},{""timeline"":[{""image_size"":[86,86],""line_px"":1,""post_trial_gap"":0,""grid_size"":[20,20],""stim_scene_start"":[3,7]},{""stimuli"":[[""img/obj12.png"",""img/obj10.png"",""img/obj11.png""],[""img/obj2.png"",""img/obj4.png"",0],[0,0,""img/obj1.png""]],""image_size"":[86,86],""line_px"":1,""post_trial_gap"":0,""grid_size"":[20,20],""stim_scene_start"":[3,7]}]},{""timeline"":[{""image_size"":[86,86],""line_px"":1,""post_trial_gap"":0,""grid_size"":[20,20],""stim_scene_start"":[3,7]},{""stimuli"":[[0,0,""img/obj9.png""],[""img/obj12.png"",""img/obj5.png"",0],[""img/obj2.png"",""img/obj10.png"",""img/obj11.png""]],""image_size"":[86,86],""line_px"":1,""post_trial_gap"":0,""grid_size"":[20,20],""stim_scene_start"":[3,7]}]},{""timeline"":[{""image_size"":[86,86],""line_px"":1,""post_trial_gap"":0,""grid_size"":[20,20],""stim_scene_start"":[3,7]},{""stimuli"":[[0,0,""img/obj6.png""],[0,""img/obj4.png"",""img/obj3.png""],[""img/obj8.png"",""img/obj7.png"",""img/obj1.png""]],""image_size"":[86,86],""line_px"":1,""post_trial_gap"":0,""grid_size"":[20,20],""stim_scene_start"":[3,7]}]},{""timeline"":[{""image_size"":[86,86],""line_px"":1,""post_trial_gap"":0,""grid_size"":[20,20],""stim_scene_start"":[3,7]},{""stimuli"":[[""img/obj12.png"",""img/obj4.png"",0],[""img/obj2.png"",0,""img/obj1.png""],[""img/obj8.png"",""img/obj7.png"",0]],""image_size"":[86,86],""line_px"":1,""post_trial_gap"":0,""grid_size"":[20,20],""stim_scene_start"":[3,7]}]},{""timeline"":[{""image_size"":[86,86],""line_px"":1,""post_trial_gap"":0,""grid_size"":[20,20],""stim_scene_start"":[3,7]},{""stimuli"":[[0,""img/obj9.png"",""img/obj6.png""],[""img/obj5.png"",0,""img/obj3.png""],[0,""img/obj10.png"",""img/obj11.png""]],""image_size"":[86,86],""line_px"":1,""post_trial_gap"":0,""grid_size"":[20,20],""stim_scene_start"":[3,7]}]},{""timeline"":[{""image_size"":[86,86],""line_px"":1,""post_trial_gap"":0,""grid_size"":[20,20],""stim_scene_start"":[3,7]},{""stimuli"":[[0,""img/obj10.png"",""img/obj11.png""],[""img/obj4.png"",0,""img/obj12.png""],[0,""img/obj1.png"",""img/obj2.png""]],""image_size"":[86,86],""line_px"":1,""post_trial_gap"":0,""grid_size"":[20,20],""stim_scene_start"":[3,7]}]},{""timeline"":[{""image_size"":[86,86],""line_px"":1,""post_trial_gap"":0,""grid_size"":[20,20],""stim_scene_start"":[3,7]},{""stimuli"":[[0,""img/obj4.png"",0],[""img/obj12.png"",0,""img/obj1.png""],[""img/obj2.png"",""img/obj8.png"",""img/obj7.png""]],""image_size"":[86,86],""line_px"":1,""post_trial_gap"":0,""grid_size"":[20,20],""stim_scene_start"":[3,7]}]},{""timeline"":[{""image_size"":[86,86],""line_px"":1,""post_trial_gap"":0,""grid_size"":[20,20],""stim_scene_start"":[3,7]},{""stimuli"":[[""img/obj8.png"",""img/obj7.png"",""img/obj6.png""],[""img/obj4.png"",0,""img/obj3.png""],[0,""img/obj1.png"",0]],""image_size"":[86,86],""line_px"":1,""post_trial_gap"":0,""grid_size"":[20,20],""stim_scene_start"":[3,7]}]},{""timeline"":[{""image_size"":[86,86],""line_px"":1,""post_trial_gap"":0,""grid_size"":[20,20],""stim_scene_start"":[3,7]},{""stimuli"":[[0,0,""img/obj12.png""],[0,""img/obj9.png"",""img/obj2.png""],[""img/obj5.png"",""img/obj10.png"",""img/obj11.png""]],""image_size"":[86,86],""line_px"":1,""post_trial_gap"":0,""grid_size"":[20,20],""stim_scene_start"":[3,7]}]},{""timeline"":[{""image_size"":[86,86],""line_px"":1,""post_trial_gap"":0,""grid_size"":[20,20],""stim_scene_start"":[3,7]},{""stimuli"":[[""img/obj4.png"",0,0],[""img/obj12.png"",""img/obj1.png"",0],[""img/obj2.png"",""img/obj8.png"",""img/obj7.png""]],""image_size"":[86,86],""line_px"":1,""post_trial_gap"":0,""grid_size"":[20,20],""stim_scene_start"":[3,7]}]},{""timeline"":[{""image_size"":[86,86],""line_px"":1,""post_trial_gap"":0,""grid_size"":[20,20],""stim_scene_start"":[3,7]},{""stimuli"":[[0,""img/obj9.png"",0],[""img/obj5.png"",0,""img/obj6.png""],[""img/obj8.png"",""img/obj7.png"",""img/obj3.png""]],""image_size"":[86,86],""line_px"":1,""post_trial_gap"":0,""grid_size"":[20,20],""stim_scene_start"":[3,7]}]},{""timeline"":[{""image_size"":[86,86],""line_px"":1,""post_trial_gap"":0,""grid_size"":[20,20],""stim_scene_start"":[3,7]},{""stimuli"":[[""img/obj10.png"",""img/obj11.png"",""img/obj12.png""],[0,""img/obj9.png"",""img/obj2.png""],[""img/obj5.png"",0,0]],""image_size"":[86,86],""line_px"":1,""post_trial_gap"":0,""grid_size"":[20,20],""stim_scene_start"":[3,7]}]},{""timeline"":[{""image_size"":[86,86],""line_px"":1,""post_trial_gap"":0,""grid_size"":[20,20],""stim_scene_start"":[3,7]},{""stimuli"":[[""img/obj12.png"",""img/obj4.png"",0],[""img/obj2.png"",0,""img/obj1.png""],[""img/obj10.png"",""img/obj11.png"",0]],""image_size"":[86,86],""line_px"":1,""post_trial_gap"":0,""grid_size"":[20,20],""stim_scene_start"":[3,7]}]},{""timeline"":[{""image_size"":[86,86],""line_px"":1,""post_trial_gap"":0,""grid_size"":[20,20],""stim_scene_start"":[3,7]},{""stimuli"":[[""img/obj4.png"",0,""img/obj6.png""],[0,""img/obj1.png"",""img/obj3.png""],[""img/obj8.png"",""img/obj7.png"",0]],""image_size"":[86,86],""line_px"":1,""post_trial_gap"":0,""grid_size"":[20,20],""stim_scene_start"":[3,7]}]},{""timeline"":[{""image_size"":[86,86],""line_px"":1,""post_trial_gap"":0,""grid_size"":[20,20],""stim_scene_start"":[3,7]},{""stimuli"":[[""img/obj4.png"",""img/obj8.png"",""img/obj7.png""],[0,""img/obj1.png"",""img/obj6.png""],[0,0,""img/obj3.png""]],""image_size"":[86,86],""line_px"":1,""post_trial_gap"":0,""grid_size"":[20,20],""stim_scene_start"":[3,7]}]},{""timeline"":[{""image_size"":[86,86],""line_px"":1,""post_trial_gap"":0,""grid_size"":[20,20],""stim_scene_start"":[3,7]},{""stimuli"":[[""img/obj8.png"",""img/obj7.png"",""img/obj12.png""],[""img/obj4.png"",0,""img/obj2.png""],[0,""img/obj1.png"",0]],""image_size"":[86,86],""line_px"":1,""post_trial_gap"":0,""grid_size"":[20,20],""stim_scene_start"":[3,7]}]},{""timeline"":[{""image_size"":[86,86],""line_px"":1,""post_trial_gap"":0,""grid_size"":[20,20],""stim_scene_start"":[3,7]},{""stimuli"":[[""img/obj10.png"",""img/obj11.png"",""img/obj12.png""],[0,""img/obj4.png"",""img/obj2.png""],[0,0,""img/obj1.png""]],""image_size"":[86,86],""line_px"":1,""post_trial_gap"":0,""grid_size"":[20,20],""stim_scene_start"":[3,7]}]},{""timeline"":[{""image_size"":[86,86],""line_px"":1,""post_trial_gap"":0,""grid_size"":[20,20],""stim_scene_start"":[3,7]},{""stimuli"":[[""img/obj12.png"",0,""img/obj9.png""],[""img/obj2.png"",""img/obj5.png"",0],[""img/obj10.png"",""img/obj11.png"",0]],""image_size"":[86,86],""line_px"":1,""post_trial_gap"":0,""grid_size"":[20,20],""stim_scene_start"":[3,7]}]},{""timeline"":[{""image_size"":[86,86],""line_px"":1,""post_trial_gap"":0,""grid_size"":[20,20],""stim_scene_start"":[3,7]},{""stimuli"":[[""img/obj4.png"",0,0],[0,""img/obj1.png"",""img/obj6.png""],[""img/obj10.png"",""img/obj11.png"",""img/obj3.png""]],""image_size"":[86,86],""line_px"":1,""post_trial_gap"":0,""grid_size"":[20,20],""stim_scene_start"":[3,7]}]},{""timeline"":[{""image_size"":[86,86],""line_px"":1,""post_trial_gap"":0,""grid_size"":[20,20],""stim_scene_start"":[3,7]},{""stimuli"":[[""img/obj8.png"",""img/obj7.png"",0],[""img/obj4.png"",0,""img/obj12.png""],[0,""img/obj1.png"",""img/obj2.png""]],""image_size"":[86,86],""line_px"":1,""post_trial_gap"":0,""grid_size"":[20,20],""stim_scene_start"":[3,7]}]},{""timeline"":[{""image_size"":[86,86],""line_px"":1,""post_trial_gap"":0,""grid_size"":[20,20],""stim_scene_start"":[3,7]},{""stimuli"":[[""img/obj6.png"",""img/obj10.png"",""img/obj11.png""],[""img/obj3.png"",0,""img/obj9.png""],[0,""img/obj5.png"",0]],""image_size"":[86,86],""line_px"":1,""post_trial_gap"":0,""grid_size"":[20,20],""stim_scene_start"":[3,7]}]},{""timeline"":[{""image_size"":[86,86],""line_px"":1,""post_trial_gap"":0,""grid_size"":[20,20],""stim_scene_start"":[3,7]},{""stimuli"":[[0,0,""img/obj6.png""],[0,""img/obj9.png"",""img/obj3.png""],[""img/obj5.png"",""img/obj8.png"",""img/obj7.png""]],""image_size"":[86,86],""line_px"":1,""post_trial_gap"":0,""grid_size"":[20,20],""stim_scene_start"":[3,7]}]},{""timeline"":[{""image_size"":[86,86],""line_px"":1,""post_trial_gap"":0,""grid_size"":[20,20],""stim_scene_start"":[3,7]},{""stimuli"":[[""img/obj12.png"",""img/obj8.png"",""img/obj7.png""],[""img/obj2.png"",0,""img/obj9.png""],[0,""img/obj5.png"",0]],""image_size"":[86,86],""line_px"":1,""post_trial_gap"":0,""grid_size"":[20,20],""stim_scene_start"":[3,7]}]},{""timeline"":[{""image_size"":[86,86],""line_px"":1,""post_trial_gap"":0,""grid_size"":[20,20],""stim_scene_start"":[3,7]},{""stimuli"":[[""img/obj6.png"",""img/obj4.png"",0],[""img/obj3.png"",0,""img/obj1.png""],[0,""img/obj10.png"",""img/obj11.png""]],""image_size"":[86,86],""line_px"":1,""post_trial_gap"":0,""grid_size"":[20,20],""stim_scene_start"":[3,7]}]},{""timeline"":[{""image_size"":[86,86],""line_px"":1,""post_trial_gap"":0,""grid_size"":[20,20],""stim_scene_start"":[3,7]},{""stimuli"":[[""img/obj6.png"",0,""img/obj9.png""],[""img/obj3.png"",""img/obj5.png"",0],[0,""img/obj8.png"",""img/obj7.png""]],""image_size"":[86,86],""line_px"":1,""post_trial_gap"":0,""grid_size"":[20,20],""stim_scene_start"":[3,7]}]},{""timeline"":[{""image_size"":[86,86],""line_px"":1,""post_trial_gap"":0,""grid_size"":[20,20],""stim_scene_start"":[3,7]},{""stimuli"":[[""img/obj4.png"",0,""img/obj12.png""],[0,""img/obj1.png"",""img/obj2.png""],[0,""img/obj8.png"",""img/obj7.png""]],""image_size"":[86,86],""line_px"":1,""post_trial_gap"":0,""grid_size"":[20,20],""stim_scene_start"":[3,7]}]},{""timeline"":[{""image_size"":[86,86],""line_px"":1,""post_trial_gap"":0,""grid_size"":[20,20],""stim_scene_start"":[3,7]},{""stimuli"":[[""img/obj12.png"",""img/obj4.png"",0],[""img/obj2.png"",0,""img/obj1.png""],[0,""img/obj10.png"",""img/obj11.png""]],""image_size"":[86,86],""line_px"":1,""post_trial_gap"":0,""grid_size"":[20,20],""stim_scene_start"":[3,7]}]},{""timeline"":[{""image_size"":[86,86],""line_px"":1,""post_trial_gap"":0,""grid_size"":[20,20],""stim_scene_start"":[3,7]},{""stimuli"":[[""img/obj12.png"",""img/obj4.png"",0],[""img/obj2.png"",0,""img/obj1.png""],[0,""img/obj8.png"",""img/obj7.png""]],""image_size"":[86,86],""line_px"":1,""post_trial_gap"":0,""grid_size"":[20,20],""stim_scene_start"":[3,7]}]},{""timeline"":[{""image_size"":[86,86],""line_px"":1,""post_trial_gap"":0,""grid_size"":[20,20],""stim_scene_start"":[3,7]},{""stimuli"":[[""img/obj10.png"",""img/obj11.png"",""img/obj6.png""],[""img/obj4.png"",0,""img/obj3.png""],[0,""img/obj1.png"",0]],""image_size"":[86,86],""line_px"":1,""post_trial_gap"":0,""grid_size"":[20,20],""stim_scene_start"":[3,7]}]},{""timeline"":[{""image_size"":[86,86],""line_px"":1,""post_trial_gap"":0,""grid_size"":[20,20],""stim_scene_start"":[3,7]},{""stimuli"":[[""img/obj12.png"",""img/obj8.png"",""img/obj7.png""],[""img/obj2.png"",""img/obj9.png"",0],[""img/obj5.png"",0,0]],""image_size"":[86,86],""line_px"":1,""post_trial_gap"":0,""grid_size"":[20,20],""stim_scene_start"":[3,7]}]},{""timeline"":[{""image_size"":[86,86],""line_px"":1,""post_trial_gap"":0,""grid_size"":[20,20],""stim_scene_start"":[3,7]},{""stimuli"":[[0,""img/obj9.png"",0],[""img/obj5.png"",0,""img/obj6.png""],[""img/obj10.png"",""img/obj11.png"",""img/obj3.png""]],""image_size"":[86,86],""line_px"":1,""post_trial_gap"":0,""grid_size"":[20,20],""stim_scene_start"":[3,7]}]},{""timeline"":[{""image_size"":[86,86],""line_px"":1,""post_trial_gap"":0,""grid_size"":[20,20],""stim_scene_start"":[3,7]},{""stimuli"":[[""img/obj10.png"",""img/obj11.png"",0],[""img/obj12.png"",0,""img/obj9.png""],[""img/obj2.png"",""img/obj5.png"",0]],""image_size"":[86,86],""line_px"":1,""post_trial_gap"":0,""grid_size"":[20,20],""stim_scene_start"":[3,7]}]},{""timeline"":[{""image_size"":[86,86],""line_px"":1,""post_trial_gap"":0,""grid_size"":[20,20],""stim_scene_start"":[3,7]},{""stimuli"":[[""img/obj6.png"",0,0],[""img/obj3.png"",""img/obj4.png"",0],[""img/obj10.png"",""img/obj11.png"",""img/obj1.png""]],""image_size"":[86,86],""line_px"":1,""post_trial_gap"":0,""grid_size"":[20,20],""stim_scene_start"":[3,7]}]},{""timeline"":[{""image_size"":[86,86],""line_px"":1,""post_trial_gap"":0,""grid_size"":[20,20],""stim_scene_start"":[3,7]},{""stimuli"":[[""img/obj4.png"",0,0],[0,""img/obj1.png"",""img/obj12.png""],[""img/obj10.png"",""img/obj11.png"",""img/obj2.png""]],""image_size"":[86,86],""line_px"":1,""post_trial_gap"":0,""grid_size"":[20,20],""stim_scene_start"":[3,7]}]},{""timeline"":[{""image_size"":[86,86],""line_px"":1,""post_trial_gap"":0,""grid_size"":[20,20],""stim_scene_start"":[3,7]},{""stimuli"":[[""img/obj12.png"",0,""img/obj9.png""],[""img/obj2.png"",""img/obj5.png"",0],[0,""img/obj10.png"",""img/obj11.png""]],""image_size"":[86,86],""line_px"":1,""post_trial_gap"":0,""grid_size"":[20,20],""stim_scene_start"":[3,7]}]},{""timeline"":[{""image_size"":[86,86],""line_px"":1,""post_trial_gap"":0,""grid_size"":[20,20],""stim_scene_start"":[3,7]},{""stimuli"":[[""img/obj10.png"",""img/obj11.png"",0],[0,""img/obj9.png"",""img/obj12.png""],[""img/obj5.png"",0,""img/obj2.png""]],""image_size"":[86,86],""line_px"":1,""post_trial_gap"":0,""grid_size"":[20,20],""stim_scene_start"":[3,7]}]},{""timeline"":[{""image_size"":[86,86],""line_px"":1,""post_trial_gap"":0,""grid_size"":[20,20],""stim_scene_start"":[3,7]},{""stimuli"":[[""img/obj4.png"",0,""img/obj12.png""],[0,""img/obj1.png"",""img/obj2.png""],[""img/obj8.png"",""img/obj7.png"",0]],""image_size"":[86,86],""line_px"":1,""post_trial_gap"":0,""grid_size"":[20,20],""stim_scene_start"":[3,7]}]},{""timeline"":[{""image_size"":[86,86],""line_px"":1,""post_trial_gap"":0,""grid_size"":[20,20],""stim_scene_start"":[3,7]},{""stimuli"":[[0,0,""img/obj6.png""],[0,""img/obj4.png"",""img/obj3.png""],[""img/obj10.png"",""img/obj11.png"",""img/obj1.png""]],""image_size"":[86,86],""line_px"":1,""post_trial_gap"":0,""grid_size"":[20,20],""stim_scene_start"":[3,7]}]},{""timeline"":[{""image_size"":[86,86],""line_px"":1,""post_trial_gap"":0,""grid_size"":[20,20],""stim_scene_start"":[3,7]},{""stimuli"":[[0,""img/obj9.png"",""img/obj12.png""],[""img/obj5.png"",0,""img/obj2.png""],[""img/obj10.png"",""img/obj11.png"",0]],""image_size"":[86,86],""line_px"":1,""post_trial_gap"":0,""grid_size"":[20,20],""stim_scene_start"":[3,7]}]},{""timeline"":[{""image_size"":[86,86],""line_px"":1,""post_trial_gap"":0,""grid_size"":[20,20],""stim_scene_start"":[3,7]},{""stimuli"":[[""img/obj10.png"",""img/obj11.png"",0],[""img/obj12.png"",""img/obj4.png"",0],[""img/obj2.png"",0,""img/obj1.png""]],""image_size"":[86,86],""line_px"":1,""post_trial_gap"":0,""grid_size"":[20,20],""stim_scene_start"":[3,7]}]},{""timeline"":[{""image_size"":[86,86],""line_px"":1,""post_trial_gap"":0,""grid_size"":[20,20],""stim_scene_start"":[3,7]},{""stimuli"":[[""img/obj6.png"",""img/obj4.png"",0],[""img/obj3.png"",0,""img/obj1.png""],[""img/obj10.png"",""img/obj11.png"",0]],""image_size"":[86,86],""line_px"":1,""post_trial_gap"":0,""grid_size"":[20,20],""stim_scene_start"":[3,7]}]},{""timeline"":[{""image_size"":[86,86],""line_px"":1,""post_trial_gap"":0,""grid_size"":[20,20],""stim_scene_start"":[3,7]},{""stimuli"":[[""img/obj8.png"",""img/obj7.png"",0],[""img/obj12.png"",""img/obj4.png"",0],[""img/obj2.png"",0,""img/obj1.png""]],""image_size"":[86,86],""line_px"":1,""post_trial_gap"":0,""grid_size"":[20,20],""stim_scene_start"":[3,7]}]},{""timeline"":[{""image_size"":[86,86],""line_px"":1,""post_trial_gap"":0,""grid_size"":[20,20],""stim_scene_start"":[3,7]},{""stimuli"":[[""img/obj6.png"",0,""img/obj9.png""],[""img/obj3.png"",""img/obj5.png"",0],[""img/obj10.png"",""img/obj11.png"",0]],""image_size"":[86,86],""line_px"":1,""post_trial_gap"":0,""grid_size"":[20,20],""stim_scene_start"":[3,7]}]},{""timeline"":[{""image_size"":[86,86],""line_px"":1,""post_trial_gap"":0,""grid_size"":[20,20],""stim_scene_start"":[3,7]},{""stimuli"":[[0,0,""img/obj9.png""],[0,""img/obj5.png"",""img/obj6.png""],[""img/obj8.png"",""img/obj7.png"",""img/obj3.png""]],""image_size"":[86,86],""line_px"":1,""post_trial_gap"":0,""grid_size"":[20,20],""stim_scene_start"":[3,7]}]},{""timeline"":[{""image_size"":[86,86],""line_px"":1,""post_trial_gap"":0,""grid_size"":[20,20],""stim_scene_start"":[3,7]},{""stimuli"":[[0,0,""img/obj9.png""],[""img/obj6.png"",""img/obj5.png"",0],[""img/obj3.png"",""img/obj8.png"",""img/obj7.png""]],""image_size"":[86,86],""line_px"":1,""post_trial_gap"":0,""grid_size"":[20,20],""stim_scene_start"":[3,7]}]},{""timeline"":[{""image_size"":[86,86],""line_px"":1,""post_trial_gap"":0,""grid_size"":[20,20],""stim_scene_start"":[3,7]},{""stimuli"":[[0,0,""img/obj6.png""],[0,""img/obj9.png"",""img/obj3.png""],[""img/obj5.png"",""img/obj10.png"",""img/obj11.png""]],""image_size"":[86,86],""line_px"":1,""post_trial_gap"":0,""grid_size"":[20,20],""stim_scene_start"":[3,7]}]},{""timeline"":[{""image_size"":[86,86],""line_px"":1,""post_trial_gap"":0,""grid_size"":[20,20],""stim_scene_start"":[3,7]},{""stimuli"":[[""img/obj8.png"",""img/obj7.png"",""img/obj9.png""],[0,""img/obj5.png"",""img/obj6.png""],[0,0,""img/obj3.png""]],""image_size"":[86,86],""line_px"":1,""post_trial_gap"":0,""grid_size"":[20,20],""stim_scene_start"":[3,7]}]},{""timeline"":[{""image_size"":[86,86],""line_px"":1,""post_trial_gap"":0,""grid_size"":[20,20],""stim_scene_start"":[3,7]},{""stimuli"":[[""img/obj12.png"",""img/obj10.png"",""img/obj11.png""],[""img/obj2.png"",0,""img/obj9.png""],[0,""img/obj5.png"",0]],""image_size"":[86,86],""line_px"":1,""post_trial_gap"":0,""grid_size"":[20,20],""stim_scene_start"":[3,7]}]},{""timeline"":[{""image_size"":[86,86],""line_px"":1,""post_trial_gap"":0,""grid_size"":[20,20],""stim_scene_start"":[3,7]},{""stimuli"":[[""img/obj4.png"",0,0],[""img/obj6.png"",""img/obj1.png"",0],[""img/obj3.png"",""img/obj8.png"",""img/obj7.png""]],""image_size"":[86,86],""line_px"":1,""post_trial_gap"":0,""grid_size"":[20,20],""stim_scene_start"":[3,7]}]},{""timeline"":[{""image_size"":[86,86],""line_px"":1,""post_trial_gap"":0,""grid_size"":[20,20],""stim_scene_start"":[3,7]},{""stimuli"":[[""img/obj10.png"",""img/obj11.png"",0],[""img/obj6.png"",0,""img/obj9.png""],[""img/obj3.png"",""img/obj5.png"",0]],""image_size"":[86,86],""line_px"":1,""post_trial_gap"":0,""grid_size"":[20,20],""stim_scene_start"":[3,7]}]},{""timeline"":[{""image_size"":[86,86],""line_px"":1,""post_trial_gap"":0,""grid_size"":[20,20],""stim_scene_start"":[3,7]},{""stimuli"":[[""img/obj6.png"",""img/obj8.png"",""img/obj7.png""],[""img/obj3.png"",""img/obj4.png"",0],[0,0,""img/obj1.png""]],""image_size"":[86,86],""line_px"":1,""post_trial_gap"":0,""grid_size"":[20,20],""stim_scene_start"":[3,7]}]},{""timeline"":[{""image_size"":[86,86],""line_px"":1,""post_trial_gap"":0,""grid_size"":[20,20],""stim_scene_start"":[3,7]},{""stimuli"":[[""img/obj12.png"",0,""img/obj9.png""],[""img/obj2.png"",""img/obj5.png"",0],[0,""img/obj8.png"",""img/obj7.png""]],""image_size"":[86,86],""line_px"":1,""post_trial_gap"":0,""grid_size"":[20,20],""stim_scene_start"":[3,7]}]},{""timeline"":[{""image_size"":[86,86],""line_px"":1,""post_trial_gap"":0,""grid_size"":[20,20],""stim_scene_start"":[3,7]},{""stimuli"":[[""img/obj6.png"",""img/obj4.png"",0],[""img/obj3.png"",0,""img/obj1.png""],[0,""img/obj8.png"",""img/obj7.png""]],""image_size"":[86,86],""line_px"":1,""post_trial_gap"":0,""grid_size"":[20,20],""stim_scene_start"":[3,7]}]}]"
