"trial_type","trial_index","time_elapsed","internal_node_id","success","rt","stimulus","button_pressed","responses","training_vector","training_matrixRow","key_press","test_part","correct_response","test_number","test_vector","correct","image_switchboard","scene_order","participant","study","session"
"pavlovia","0","3","0.0-0.0","","","","","","","","","","","","","","","","","",""
"fullscreen","1","2239","0.0-1.0","true","","","","","","","","","","","","","","","","",""
"html-button-response","2","3888","0.0-2.0","","1644.5999999642372","<p style=""text-align: justify;margin-left: 15%; margin-right:15%"">You are participating in an experiment at the Vision Lab of the Department of Cognitive Science, Central European University.  One of our main questions is what kind of representations we can create about our visual environment and how these representations influence our behavior. At our lab we use multiple methods, for example behavioral experiments and computational models. In this experiment you will observe scenes consisting of abstract shapes and answer simple questions about them. <br><br>At the beginning and throughout the experiment you will receive precise information about what to do. The experiment takes about 25 minutes in total. <br><br>The test is voluntary, and you can withdraw your participation at any time. We treat your personal information confidentially. <br>Only those people who work on this research project have access to your data. We will work with group level statistics. We will only report the results of the group in scientific publications and conferences. This research was approved by the Hungarian Psychological Research Ethics Committee.<br><br>If you have any further questions about the study, you can contact the experimenter, Beata Tunde Szabo, PhD Student. Contact: 1051 Nador u. 11. E-mail: szabo_beata-tunde@phd.ceu.edu <br><br>By pressing the button below you indicate that you read this information, found it sufficent, and you consent to participate in the experiment. <br><br> </p>","0","","","","","","","","","","","","","",""
"survey-html-form","3","8776","0.0-3.0","","4887","","","{""Age"":""30"",""gender"":""Male"",""gender_other"":""""}","","","","","","","","","","","","",""
"html-button-response","4","29335","0.0-4.0","","20557.80000001192","<p style=""text-align: justify;margin-left: 15%; margin-right:15%""> This is your practice session. You will see a checkerboard with random simple shapes appearing in different positions in the checkerboard. Your task is simply to observe the patterns so that you would be able to answer some questions about the sequence after the practice session.  The session will last for about 15 minutes.  Please, pay attention to EACH display! <br><br>Occasionally, there will be an attention check asking you to press the spacebar. ","0","","","","","","","","","","","","","",""
"vsl-grid-scene-snap","5","31345","0.0-5.0-0.0-0.0","","","[[0,""img/obj10.png"",0],[""img/obj11.png"",0,""img/obj12.png""],[""img/obj2.png"",""img/obj4.png"",""img/obj5.png""]]","","","3,2,2,1,3,3,2,1,5","133","","","","","","","","","","",""
"vsl-grid-scene-snap","6","34350","0.0-5.0-0.0-1.0","","","[[""img/obj12.png"",""img/obj2.png"",""img/obj4.png""],[""img/obj5.png"",""img/obj3.png"",0],[0,0,""img/obj7.png""]]","","","1,1,2,2,1,3,2,2,6","9","","","","","","","","","","",""
"vsl-grid-scene-snap","7","37366","0.0-5.0-0.0-2.0","","","[[""img/obj8.png"",0,""img/obj10.png""],[""img/obj9.png"",""img/obj11.png"",0],[""img/obj2.png"",""img/obj4.png"",0]]","","","1,1,1,1,3,3,3,1,5","24","","","","","","","","","","",""
"vsl-grid-scene-snap","8","40379","0.0-5.0-0.0-3.0","","","[[""img/obj3.png"",0,0],[0,""img/obj7.png"",""img/obj8.png""],[""img/obj2.png"",""img/obj4.png"",""img/obj9.png""]]","","","3,2,1,1,3,3,1,1,6","136","","","","","","","","","","",""
"vsl-grid-scene-snap","9","43397","0.0-5.0-0.0-4.0","","","[[""img/obj8.png"",""img/obj1.png"",""img/obj6.png""],[""img/obj9.png"",""img/obj10.png"",0],[""img/obj11.png"",0,0]]","","","1,1,1,2,1,4,2,2,5","6","","","","","","","","","","",""
"vsl-grid-scene-snap","10","46410","0.0-5.0-0.0-5.0","","","[[0,""img/obj10.png"",0],[""img/obj11.png"",0,""img/obj8.png""],[""img/obj2.png"",""img/obj4.png"",""img/obj9.png""]]","","","3,2,1,1,3,3,2,1,5","132","","","","","","","","","","",""
"vsl-grid-scene-snap","11","49426","0.0-5.0-0.0-6.0","","","[[""img/obj3.png"",0,""img/obj12.png""],[0,""img/obj7.png"",""img/obj5.png""],[0,""img/obj2.png"",""img/obj4.png""]]","","","3,1,2,2,3,3,1,1,6","93","","","","","","","","","","",""
"vsl-grid-scene-snap","12","52444","0.0-5.0-0.0-7.0","","","[[0,""img/obj1.png"",""img/obj6.png""],[""img/obj12.png"",""img/obj3.png"",0],[""img/obj5.png"",0,""img/obj7.png""]]","","","1,2,2,2,1,4,2,2,6","47","","","","","","","","","","",""
"vsl-grid-scene-snap","13","55457","0.0-5.0-0.0-8.0","","","[[""img/obj3.png"",0,""img/obj12.png""],[0,""img/obj7.png"",""img/obj5.png""],[""img/obj1.png"",""img/obj6.png"",0]]","","","3,1,2,1,3,4,1,1,6","103","","","","","","","","","","",""
"vsl-grid-scene-snap","14","58473","0.0-5.0-0.0-9.0","","","[[""img/obj2.png"",""img/obj4.png"",0],[0,""img/obj10.png"",""img/obj8.png""],[""img/obj11.png"",0,""img/obj9.png""]]","","","3,2,1,1,1,3,2,2,5","108","","","","","","","","","","",""
"vsl-grid-scene-snap","15","61488","0.0-5.0-0.0-10.0","","","[[""img/obj1.png"",""img/obj6.png"",0],[""img/obj8.png"",""img/obj3.png"",0],[""img/obj9.png"",0,""img/obj7.png""]]","","","1,2,1,1,1,4,2,2,6","70","","","","","","","","","","",""
"vsl-grid-scene-snap","16","64504","0.0-5.0-0.0-11.0","","","[[""img/obj8.png"",""img/obj1.png"",""img/obj6.png""],[""img/obj9.png"",""img/obj3.png"",0],[0,0,""img/obj7.png""]]","","","1,1,1,2,1,4,2,2,6","10","","","","","","","","","","",""
"vsl-grid-scene-snap","17","67519","0.0-5.0-0.0-12.0","","","[[""img/obj1.png"",""img/obj6.png"",""img/obj10.png""],[0,""img/obj11.png"",""img/obj8.png""],[0,0,""img/obj9.png""]]","","","3,2,1,1,1,4,3,1,5","118","","","","","","","","","","",""
"vsl-grid-scene-snap","18","70551","0.0-5.0-0.0-13.0","","","[[""img/obj3.png"",0,0],[""img/obj8.png"",""img/obj7.png"",0],[""img/obj9.png"",""img/obj2.png"",""img/obj4.png""]]","","","1,2,1,2,3,3,1,1,6","56","","","","","","","","","","",""
"vsl-grid-scene-snap","19","73567","0.0-5.0-0.0-14.0","","","[[0,""img/obj10.png"",""img/obj12.png""],[""img/obj11.png"",0,""img/obj5.png""],[""img/obj2.png"",""img/obj4.png"",0]]","","","3,1,2,1,3,3,2,1,5","97","","","","","","","","","","",""
"vsl-grid-scene-snap","20","76583","0.0-5.0-0.0-15.0","","","[[""img/obj3.png"",0,""img/obj12.png""],[0,""img/obj7.png"",""img/obj5.png""],[0,""img/obj1.png"",""img/obj6.png""]]","","","3,1,2,2,3,4,1,1,6","95","","","","","","","","","","",""
"vsl-grid-scene-snap","21","79599","0.0-5.0-0.0-16.0","","","[[0,""img/obj2.png"",""img/obj4.png""],[""img/obj8.png"",0,""img/obj10.png""],[""img/obj9.png"",""img/obj11.png"",0]]","","","1,2,1,2,1,3,3,2,5","36","","","","","","","","","","",""
"vsl-grid-scene-snap","22","82614","0.0-5.0-0.0-17.0","","","[[0,0,""img/obj10.png""],[""img/obj12.png"",""img/obj11.png"",0],[""img/obj5.png"",""img/obj2.png"",""img/obj4.png""]]","","","1,2,2,2,3,3,3,1,5","49","","","","","","","","","","",""
"vsl-grid-scene-snap","23","85631","0.0-5.0-0.0-18.0","","","[[""img/obj2.png"",""img/obj4.png"",0],[""img/obj12.png"",""img/obj3.png"",0],[""img/obj5.png"",0,""img/obj7.png""]]","","","1,2,2,1,1,3,2,2,6","69","","","","","","","","","","",""
"vsl-grid-scene-snap","24","88651","0.0-5.0-0.0-19.0","","","[[""img/obj2.png"",""img/obj4.png"",""img/obj10.png""],[""img/obj8.png"",""img/obj11.png"",0],[""img/obj9.png"",0,0]]","","","1,2,1,1,1,3,3,1,5","64","","","","","","","","","","",""
"vsl-grid-scene-snap","25","91661","0.0-5.0-0.0-20.0","","","[[""img/obj8.png"",""img/obj1.png"",""img/obj6.png""],[""img/obj9.png"",0,""img/obj10.png""],[0,""img/obj11.png"",0]]","","","1,1,1,2,1,4,3,2,5","2","","","","","","","","","","",""
"vsl-grid-scene-snap","26","94676","0.0-5.0-0.0-21.0","","","[[""img/obj8.png"",""img/obj3.png"",0],[""img/obj9.png"",0,""img/obj7.png""],[0,""img/obj2.png"",""img/obj4.png""]]","","","1,1,1,2,3,3,2,1,6","20","","","","","","","","","","",""
"vsl-grid-scene-snap","27","97703","0.0-5.0-0.0-22.0","","","[[""img/obj3.png"",""img/obj2.png"",""img/obj4.png""],[""img/obj8.png"",""img/obj7.png"",0],[""img/obj9.png"",0,0]]","","","1,2,1,2,1,3,1,1,6","40","","","","","","","","","","",""
"vsl-grid-scene-snap","28","100723","0.0-5.0-0.0-23.0","","","[[""img/obj2.png"",""img/obj4.png"",0],[""img/obj3.png"",0,""img/obj8.png""],[0,""img/obj7.png"",""img/obj9.png""]]","","","3,2,1,1,1,3,1,2,6","112","","","","","","","","","","",""
"vsl-grid-scene-snap","29","103740","0.0-5.0-0.0-24.0","","","[[0,0,""img/obj8.png""],[0,""img/obj3.png"",""img/obj9.png""],[""img/obj2.png"",""img/obj4.png"",""img/obj7.png""]]","","","3,1,1,1,3,3,2,2,6","104","","","","","","","","","","",""
"vsl-grid-scene-snap","30","106755","0.0-5.0-0.0-25.0","","","[[""img/obj2.png"",""img/obj4.png"",""img/obj10.png""],[0,""img/obj11.png"",""img/obj8.png""],[0,0,""img/obj9.png""]]","","","3,2,1,1,1,3,3,1,5","116","","","","","","","","","","",""
"vsl-grid-scene-snap","31","109772","0.0-5.0-0.0-26.0","","","[[""img/obj3.png"",0,0],[""img/obj8.png"",""img/obj7.png"",0],[""img/obj9.png"",""img/obj1.png"",""img/obj6.png""]]","","","1,2,1,2,3,4,1,1,6","58","","","","","","","","","","",""
"vsl-grid-scene-snap","32","112795","0.0-5.0-0.0-27.0","","","[[""img/obj12.png"",""img/obj3.png"",0],[""img/obj5.png"",0,""img/obj7.png""],[0,""img/obj2.png"",""img/obj4.png""]]","","","1,1,2,2,3,3,2,1,6","21","","","","","","","","","","",""
"vsl-grid-scene-snap","33","115803","0.0-5.0-0.0-28.0","","","[[""img/obj8.png"",0,""img/obj10.png""],[""img/obj9.png"",""img/obj11.png"",0],[""img/obj1.png"",""img/obj6.png"",0]]","","","1,1,1,1,3,4,3,1,5","26","","","","","","","","","","",""
"vsl-grid-scene-snap","34","118819","0.0-5.0-0.0-29.0","","","[[""img/obj3.png"",""img/obj1.png"",""img/obj6.png""],[0,""img/obj7.png"",""img/obj8.png""],[0,0,""img/obj9.png""]]","","","3,2,1,2,1,4,1,1,6","130","","","","","","","","","","",""
"vsl-grid-scene-snap","35","121834","0.0-5.0-0.0-30.0","","","[[""img/obj8.png"",""img/obj2.png"",""img/obj4.png""],[""img/obj9.png"",""img/obj10.png"",0],[""img/obj11.png"",0,0]]","","","1,1,1,2,1,3,2,2,5","4","","","","","","","","","","",""
"vsl-grid-scene-snap","36","124849","0.0-5.0-0.0-31.0","","","[[""img/obj1.png"",""img/obj6.png"",""img/obj12.png""],[""img/obj3.png"",0,""img/obj5.png""],[0,""img/obj7.png"",0]]","","","3,1,2,1,1,4,1,2,6","79","","","","","","","","","","",""
"vsl-grid-scene-snap","37","127865","0.0-5.0-0.0-32.0","","","[[""img/obj3.png"",0,0],[0,""img/obj7.png"",""img/obj12.png""],[""img/obj1.png"",""img/obj6.png"",""img/obj5.png""]]","","","3,2,2,1,3,4,1,1,6","139","","","","","","","","","","",""
"vsl-grid-scene-snap","38","130880","0.0-5.0-0.0-33.0","","","[[""img/obj3.png"",""img/obj1.png"",""img/obj6.png""],[0,""img/obj7.png"",""img/obj12.png""],[0,0,""img/obj5.png""]]","","","3,2,2,2,1,4,1,1,6","131","","","","","","","","","","",""
"vsl-grid-scene-snap","39","133896","0.0-5.0-0.0-34.0","","","[[""img/obj3.png"",0,0],[""img/obj12.png"",""img/obj7.png"",0],[""img/obj5.png"",""img/obj2.png"",""img/obj4.png""]]","","","1,2,2,2,3,3,1,1,6","57","","","","","","","","","","",""
"vsl-grid-scene-snap","40","136911","0.0-5.0-0.0-35.0","","","[[""img/obj8.png"",""img/obj3.png"",0],[""img/obj9.png"",0,""img/obj7.png""],[""img/obj1.png"",""img/obj6.png"",0]]","","","1,1,1,1,3,4,2,1,6","30","","","","","","","","","","",""
"vsl-grid-scene-snap","41","139927","0.0-5.0-0.0-36.0","","","[[""img/obj3.png"",""img/obj2.png"",""img/obj4.png""],[""img/obj12.png"",""img/obj7.png"",0],[""img/obj5.png"",0,0]]","","","1,2,2,2,1,3,1,1,6","41","","","","","","","","","","",""
"vsl-grid-scene-snap","42","142954","0.0-5.0-0.0-37.0","","","[[0,""img/obj1.png"",""img/obj6.png""],[0,""img/obj10.png"",""img/obj12.png""],[""img/obj11.png"",0,""img/obj5.png""]]","","","3,2,2,2,1,4,2,2,5","123","","","","","","","","","","",""
"vsl-grid-scene-snap","43","145974","0.0-5.0-0.0-38.0","","","[[""img/obj12.png"",""img/obj3.png"",0],[""img/obj5.png"",0,""img/obj7.png""],[""img/obj1.png"",""img/obj6.png"",0]]","","","1,1,2,1,3,4,2,1,6","31","","","","","","","","","","",""
"vsl-grid-scene-snap","44","149001","0.0-5.0-0.0-39.0","","","[[""img/obj12.png"",""img/obj3.png"",0],[""img/obj5.png"",0,""img/obj7.png""],[0,""img/obj1.png"",""img/obj6.png""]]","","","1,1,2,2,3,4,2,1,6","23","","","","","","","","","","",""
"vsl-grid-scene-snap","45","152022","0.0-5.0-0.0-40.0","","","[[""img/obj8.png"",0,""img/obj10.png""],[""img/obj9.png"",""img/obj11.png"",0],[0,""img/obj2.png"",""img/obj4.png""]]","","","1,1,1,2,3,3,3,1,5","12","","","","","","","","","","",""
"vsl-grid-scene-snap","46","155039","0.0-5.0-0.0-41.0","","","[[""img/obj12.png"",0,0],[""img/obj5.png"",""img/obj3.png"",0],[""img/obj1.png"",""img/obj6.png"",""img/obj7.png""]]","","","1,1,2,1,3,4,2,2,6","35","","","","","","","","","","",""
"vsl-grid-scene-snap","47","158055","0.0-5.0-0.0-42.0","","","[[""img/obj8.png"",0,0],[""img/obj9.png"",""img/obj10.png"",0],[""img/obj11.png"",""img/obj2.png"",""img/obj4.png""]]","","","1,1,1,2,3,3,2,2,5","16","","","","","","","","","","",""
"vsl-grid-scene-snap","48","161070","0.0-5.0-0.0-43.0","","","[[""img/obj12.png"",""img/obj2.png"",""img/obj4.png""],[""img/obj5.png"",""img/obj10.png"",0],[""img/obj11.png"",0,0]]","","","1,1,2,2,1,3,2,2,5","5","","","","","","","","","","",""
"vsl-grid-scene-snap","49","164085","0.0-5.0-0.0-44.0","","","[[""img/obj8.png"",0,0],[""img/obj9.png"",""img/obj10.png"",0],[""img/obj11.png"",""img/obj1.png"",""img/obj6.png""]]","","","1,1,1,2,3,4,2,2,5","18","","","","","","","","","","",""
"vsl-grid-scene-snap","50","167102","0.0-5.0-0.0-45.0","","","[[""img/obj8.png"",0,0],[""img/obj9.png"",""img/obj3.png"",0],[""img/obj1.png"",""img/obj6.png"",""img/obj7.png""]]","","","1,1,1,1,3,4,2,2,6","34","","","","","","","","","","",""
"vsl-grid-scene-snap","51","170116","0.0-5.0-0.0-46.0","","","[[""img/obj2.png"",""img/obj4.png"",""img/obj8.png""],[0,""img/obj10.png"",""img/obj9.png""],[""img/obj11.png"",0,0]]","","","3,1,1,1,1,3,2,2,5","72","","","","","","","","","","",""
"vsl-grid-scene-snap","52","173132","0.0-5.0-0.0-47.0","","","[[""img/obj8.png"",""img/obj3.png"",0],[""img/obj9.png"",0,""img/obj7.png""],[""img/obj2.png"",""img/obj4.png"",0]]","","","1,1,1,1,3,3,2,1,6","28","","","","","","","","","","",""
"vsl-grid-attention-check","53","175517","0.0-5.0-1.0-0.0-0.0","","1365.0999999642372","[[""img/square.png"",0,""img/square.png""],[""img/square.png"",""img/attention.png"",""img/square.png""],[0,0,""img/square.png""]]","","","","","32","","","","","","","","","",""
"html-keyboard-response","54","176529","0.0-5.0-1.0-1.0","","null"," ","","","","","null","","","","","","","","","",""
"vsl-grid-scene-snap","55","178546","0.0-5.0-2.0-0.0","","","[[""img/obj3.png"",0,""img/obj8.png""],[0,""img/obj7.png"",""img/obj9.png""],[""img/obj1.png"",""img/obj6.png"",0]]","","","3,1,1,1,3,4,1,1,6","102","","","","","","","","","","",""
"vsl-grid-scene-snap","56","181562","0.0-5.0-2.0-1.0","","","[[""img/obj2.png"",""img/obj4.png"",0],[0,""img/obj10.png"",""img/obj12.png""],[""img/obj11.png"",0,""img/obj5.png""]]","","","3,2,2,1,1,3,2,2,5","109","","","","","","","","","","",""
"vsl-grid-scene-snap","57","184593","0.0-5.0-2.0-2.0","","","[[""img/obj1.png"",""img/obj6.png"",0],[""img/obj3.png"",0,""img/obj12.png""],[0,""img/obj7.png"",""img/obj5.png""]]","","","3,2,2,1,1,4,1,2,6","115","","","","","","","","","","",""
"vsl-grid-scene-snap","58","187614","0.0-5.0-2.0-3.0","","","[[""img/obj2.png"",""img/obj4.png"",""img/obj8.png""],[0,""img/obj3.png"",""img/obj9.png""],[0,0,""img/obj7.png""]]","","","3,1,1,1,1,3,2,2,6","80","","","","","","","","","","",""
"vsl-grid-scene-snap","59","190625","0.0-5.0-2.0-4.0","","","[[0,""img/obj3.png"",0],[""img/obj12.png"",0,""img/obj7.png""],[""img/obj5.png"",""img/obj2.png"",""img/obj4.png""]]","","","1,2,2,2,3,3,2,1,6","53","","","","","","","","","","",""
"vsl-grid-scene-snap","60","193641","0.0-5.0-2.0-5.0","","","[[""img/obj12.png"",""img/obj1.png"",""img/obj6.png""],[""img/obj5.png"",""img/obj3.png"",0],[0,0,""img/obj7.png""]]","","","1,1,2,2,1,4,2,2,6","11","","","","","","","","","","",""
"vsl-grid-scene-snap","61","196656","0.0-5.0-2.0-6.0","","","[[""img/obj2.png"",""img/obj4.png"",0],[""img/obj8.png"",0,""img/obj10.png""],[""img/obj9.png"",""img/obj11.png"",0]]","","","1,2,1,1,1,3,3,2,5","60","","","","","","","","","","",""
"vsl-grid-scene-snap","62","199672","0.0-5.0-2.0-7.0","","","[[""img/obj12.png"",0,0],[""img/obj5.png"",""img/obj3.png"",0],[""img/obj2.png"",""img/obj4.png"",""img/obj7.png""]]","","","1,1,2,1,3,3,2,2,6","33","","","","","","","","","","",""
"vsl-grid-scene-snap","63","202702","0.0-5.0-2.0-8.0","","","[[""img/obj8.png"",""img/obj2.png"",""img/obj4.png""],[""img/obj9.png"",0,""img/obj10.png""],[0,""img/obj11.png"",0]]","","","1,1,1,2,1,3,3,2,5","0","","","","","","","","","","",""
"vsl-grid-scene-snap","64","205720","0.0-5.0-2.0-9.0","","","[[0,""img/obj10.png"",""img/obj8.png""],[""img/obj11.png"",0,""img/obj9.png""],[""img/obj1.png"",""img/obj6.png"",0]]","","","3,1,1,1,3,4,2,1,5","98","","","","","","","","","","",""
"vsl-grid-scene-snap","65","208736","0.0-5.0-2.0-10.0","","","[[""img/obj1.png"",""img/obj6.png"",""img/obj8.png""],[0,""img/obj3.png"",""img/obj9.png""],[0,0,""img/obj7.png""]]","","","3,1,1,1,1,4,2,2,6","82","","","","","","","","","","",""
"vsl-grid-scene-snap","66","211751","0.0-5.0-2.0-11.0","","","[[0,""img/obj2.png"",""img/obj4.png""],[0,""img/obj10.png"",""img/obj8.png""],[""img/obj11.png"",0,""img/obj9.png""]]","","","3,2,1,2,1,3,2,2,5","120","","","","","","","","","","",""
"vsl-grid-scene-snap","67","214767","0.0-5.0-2.0-12.0","","","[[0,0,""img/obj12.png""],[0,""img/obj10.png"",""img/obj5.png""],[""img/obj11.png"",""img/obj1.png"",""img/obj6.png""]]","","","3,1,2,2,3,4,2,2,5","87","","","","","","","","","","",""
"vsl-grid-scene-snap","68","217783","0.0-5.0-2.0-13.0","","","[[0,""img/obj3.png"",0],[""img/obj8.png"",0,""img/obj7.png""],[""img/obj9.png"",""img/obj2.png"",""img/obj4.png""]]","","","1,2,1,2,3,3,2,1,6","52","","","","","","","","","","",""
"vsl-grid-scene-snap","69","220798","0.0-5.0-2.0-14.0","","","[[""img/obj12.png"",""img/obj2.png"",""img/obj4.png""],[""img/obj5.png"",0,""img/obj10.png""],[0,""img/obj11.png"",0]]","","","1,1,2,2,1,3,3,2,5","1","","","","","","","","","","",""
"vsl-grid-scene-snap","70","223813","0.0-5.0-2.0-15.0","","","[[""img/obj12.png"",0,0],[""img/obj5.png"",""img/obj10.png"",0],[""img/obj11.png"",""img/obj2.png"",""img/obj4.png""]]","","","1,1,2,2,3,3,2,2,5","17","","","","","","","","","","",""
"vsl-grid-scene-snap","71","226829","0.0-5.0-2.0-16.0","","","[[""img/obj1.png"",""img/obj6.png"",0],[""img/obj8.png"",0,""img/obj10.png""],[""img/obj9.png"",""img/obj11.png"",0]]","","","1,2,1,1,1,4,3,2,5","62","","","","","","","","","","",""
"vsl-grid-scene-snap","72","229845","0.0-5.0-2.0-17.0","","","[[0,""img/obj10.png"",0],[""img/obj11.png"",0,""img/obj8.png""],[""img/obj1.png"",""img/obj6.png"",""img/obj9.png""]]","","","3,2,1,1,3,4,2,1,5","134","","","","","","","","","","",""
"vsl-grid-scene-snap","73","232872","0.0-5.0-2.0-18.0","","","[[0,0,""img/obj10.png""],[""img/obj12.png"",""img/obj11.png"",0],[""img/obj5.png"",""img/obj1.png"",""img/obj6.png""]]","","","1,2,2,2,3,4,3,1,5","51","","","","","","","","","","",""
"vsl-grid-scene-snap","74","235893","0.0-5.0-2.0-19.0","","","[[0,""img/obj10.png"",""img/obj8.png""],[""img/obj11.png"",0,""img/obj9.png""],[""img/obj2.png"",""img/obj4.png"",0]]","","","3,1,1,1,3,3,2,1,5","96","","","","","","","","","","",""
"vsl-grid-scene-snap","75","238908","0.0-5.0-2.0-20.0","","","[[""img/obj3.png"",0,0],[0,""img/obj7.png"",""img/obj12.png""],[""img/obj2.png"",""img/obj4.png"",""img/obj5.png""]]","","","3,2,2,1,3,3,1,1,6","137","","","","","","","","","","",""
"vsl-grid-scene-snap","76","241924","0.0-5.0-2.0-21.0","","","[[""img/obj3.png"",0,""img/obj12.png""],[0,""img/obj7.png"",""img/obj5.png""],[""img/obj2.png"",""img/obj4.png"",0]]","","","3,1,2,1,3,3,1,1,6","101","","","","","","","","","","",""
"vsl-grid-scene-snap","77","244940","0.0-5.0-2.0-22.0","","","[[0,0,""img/obj10.png""],[0,""img/obj11.png"",""img/obj8.png""],[""img/obj1.png"",""img/obj6.png"",""img/obj9.png""]]","","","3,2,1,1,3,4,3,1,5","142","","","","","","","","","","",""
"vsl-grid-scene-snap","78","247964","0.0-5.0-2.0-23.0","","","[[""img/obj8.png"",0,0],[""img/obj9.png"",""img/obj3.png"",0],[""img/obj2.png"",""img/obj4.png"",""img/obj7.png""]]","","","1,1,1,1,3,3,2,2,6","32","","","","","","","","","","",""
"vsl-grid-scene-snap","79","250971","0.0-5.0-2.0-24.0","","","[[""img/obj1.png"",""img/obj6.png"",""img/obj10.png""],[0,""img/obj11.png"",""img/obj12.png""],[0,0,""img/obj5.png""]]","","","3,2,2,1,1,4,3,1,5","119","","","","","","","","","","",""
"vsl-grid-scene-snap","80","253986","0.0-5.0-2.0-25.0","","","[[0,0,""img/obj10.png""],[0,""img/obj11.png"",""img/obj8.png""],[""img/obj2.png"",""img/obj4.png"",""img/obj9.png""]]","","","3,2,1,1,3,3,3,1,5","140","","","","","","","","","","",""
"vsl-grid-scene-snap","81","257002","0.0-5.0-2.0-26.0","","","[[0,""img/obj1.png"",""img/obj6.png""],[""img/obj8.png"",0,""img/obj10.png""],[""img/obj9.png"",""img/obj11.png"",0]]","","","1,2,1,2,1,4,3,2,5","38","","","","","","","","","","",""
"vsl-grid-scene-snap","82","260017","0.0-5.0-2.0-27.0","","","[[0,0,""img/obj8.png""],[0,""img/obj10.png"",""img/obj9.png""],[""img/obj11.png"",""img/obj1.png"",""img/obj6.png""]]","","","3,1,1,2,3,4,2,2,5","86","","","","","","","","","","",""
"vsl-grid-scene-snap","83","263033","0.0-5.0-2.0-28.0","","","[[""img/obj1.png"",""img/obj6.png"",""img/obj8.png""],[0,""img/obj10.png"",""img/obj9.png""],[""img/obj11.png"",0,0]]","","","3,1,1,1,1,4,2,2,5","74","","","","","","","","","","",""
"vsl-grid-scene-snap","84","266049","0.0-5.0-2.0-29.0","","","[[""img/obj3.png"",0,0],[0,""img/obj7.png"",""img/obj8.png""],[""img/obj1.png"",""img/obj6.png"",""img/obj9.png""]]","","","3,2,1,1,3,4,1,1,6","138","","","","","","","","","","",""
"vsl-grid-scene-snap","85","269064","0.0-5.0-2.0-30.0","","","[[0,0,""img/obj12.png""],[0,""img/obj3.png"",""img/obj5.png""],[""img/obj2.png"",""img/obj4.png"",""img/obj7.png""]]","","","3,1,2,1,3,3,2,2,6","105","","","","","","","","","","",""
"vsl-grid-scene-snap","86","272079","0.0-5.0-2.0-31.0","","","[[0,0,""img/obj12.png""],[0,""img/obj10.png"",""img/obj5.png""],[""img/obj11.png"",""img/obj2.png"",""img/obj4.png""]]","","","3,1,2,2,3,3,2,2,5","85","","","","","","","","","","",""
"vsl-grid-scene-snap","87","275097","0.0-5.0-2.0-32.0","","","[[""img/obj2.png"",""img/obj4.png"",0],[""img/obj8.png"",""img/obj3.png"",0],[""img/obj9.png"",0,""img/obj7.png""]]","","","1,2,1,1,1,3,2,2,6","68","","","","","","","","","","",""
"vsl-grid-scene-snap","88","278111","0.0-5.0-2.0-33.0","","","[[""img/obj3.png"",0,""img/obj8.png""],[0,""img/obj7.png"",""img/obj9.png""],[""img/obj2.png"",""img/obj4.png"",0]]","","","3,1,1,1,3,3,1,1,6","100","","","","","","","","","","",""
"vsl-grid-scene-snap","89","281142","0.0-5.0-2.0-34.0","","","[[""img/obj3.png"",0,""img/obj8.png""],[0,""img/obj7.png"",""img/obj9.png""],[0,""img/obj1.png"",""img/obj6.png""]]","","","3,1,1,2,3,4,1,1,6","94","","","","","","","","","","",""
"vsl-grid-scene-snap","90","284159","0.0-5.0-2.0-35.0","","","[[0,""img/obj3.png"",0],[""img/obj12.png"",0,""img/obj7.png""],[""img/obj5.png"",""img/obj1.png"",""img/obj6.png""]]","","","1,2,2,2,3,4,2,1,6","55","","","","","","","","","","",""
"vsl-grid-scene-snap","91","287174","0.0-5.0-2.0-36.0","","","[[""img/obj8.png"",""img/obj2.png"",""img/obj4.png""],[""img/obj9.png"",""img/obj3.png"",0],[0,0,""img/obj7.png""]]","","","1,1,1,2,1,3,2,2,6","8","","","","","","","","","","",""
"vsl-grid-scene-snap","92","290206","0.0-5.0-2.0-37.0","","","[[""img/obj1.png"",""img/obj6.png"",""img/obj12.png""],[0,""img/obj10.png"",""img/obj5.png""],[""img/obj11.png"",0,0]]","","","3,1,2,1,1,4,2,2,5","75","","","","","","","","","","",""
"vsl-grid-scene-snap","93","293222","0.0-5.0-2.0-38.0","","","[[""img/obj3.png"",""img/obj1.png"",""img/obj6.png""],[""img/obj8.png"",""img/obj7.png"",0],[""img/obj9.png"",0,0]]","","","1,2,1,2,1,4,1,1,6","42","","","","","","","","","","",""
"vsl-grid-scene-snap","94","296238","0.0-5.0-2.0-39.0","","","[[""img/obj2.png"",""img/obj4.png"",""img/obj8.png""],[""img/obj3.png"",0,""img/obj9.png""],[0,""img/obj7.png"",0]]","","","3,1,1,1,1,3,1,2,6","76","","","","","","","","","","",""
"vsl-grid-scene-snap","95","299254","0.0-5.0-2.0-40.0","","","[[0,""img/obj10.png"",""img/obj8.png""],[""img/obj11.png"",0,""img/obj9.png""],[0,""img/obj1.png"",""img/obj6.png""]]","","","3,1,1,2,3,4,2,1,5","90","","","","","","","","","","",""
"vsl-grid-scene-snap","96","302269","0.0-5.0-2.0-41.0","","","[[""img/obj1.png"",""img/obj6.png"",""img/obj12.png""],[0,""img/obj3.png"",""img/obj5.png""],[0,0,""img/obj7.png""]]","","","3,1,2,1,1,4,2,2,6","83","","","","","","","","","","",""
"vsl-grid-scene-snap","97","305301","0.0-5.0-2.0-42.0","","","[[0,0,""img/obj10.png""],[0,""img/obj11.png"",""img/obj12.png""],[""img/obj2.png"",""img/obj4.png"",""img/obj5.png""]]","","","3,2,2,1,3,3,3,1,5","141","","","","","","","","","","",""
"vsl-grid-scene-snap","98","308319","0.0-5.0-2.0-43.0","","","[[0,""img/obj10.png"",""img/obj12.png""],[""img/obj11.png"",0,""img/obj5.png""],[""img/obj1.png"",""img/obj6.png"",0]]","","","3,1,2,1,3,4,2,1,5","99","","","","","","","","","","",""
"vsl-grid-scene-snap","99","311333","0.0-5.0-2.0-44.0","","","[[0,""img/obj10.png"",""img/obj8.png""],[""img/obj11.png"",0,""img/obj9.png""],[0,""img/obj2.png"",""img/obj4.png""]]","","","3,1,1,2,3,3,2,1,5","88","","","","","","","","","","",""
"vsl-grid-scene-snap","100","314348","0.0-5.0-2.0-45.0","","","[[""img/obj2.png"",""img/obj4.png"",0],[""img/obj12.png"",0,""img/obj10.png""],[""img/obj5.png"",""img/obj11.png"",0]]","","","1,2,2,1,1,3,3,2,5","61","","","","","","","","","","",""
"vsl-grid-scene-snap","101","317369","0.0-5.0-2.0-46.0","","","[[0,""img/obj1.png"",""img/obj6.png""],[0,""img/obj10.png"",""img/obj8.png""],[""img/obj11.png"",0,""img/obj9.png""]]","","","3,2,1,2,1,4,2,2,5","122","","","","","","","","","","",""
"vsl-grid-scene-snap","102","320380","0.0-5.0-2.0-47.0","","","[[""img/obj3.png"",0,0],[""img/obj12.png"",""img/obj7.png"",0],[""img/obj5.png"",""img/obj1.png"",""img/obj6.png""]]","","","1,2,2,2,3,4,1,1,6","59","","","","","","","","","","",""
"vsl-grid-attention-check","103","324395","0.0-5.0-3.0-0.0-0.0","","null","[[""img/square.png"",0,""img/square.png""],[""img/square.png"",""img/attention.png"",0],[""img/square.png"",0,""img/square.png""]]","","","","","null","","","","","","","","","",""
"vsl-grid-attention-check","104","327410","0.0-5.0-3.0-0.1-0.1","","null","[[0,""img/square.png"",""img/square.png""],[""img/square.png"",""img/attention.png"",""img/square.png""],[""img/square.png"",0,0]]","","","","","null","","","","","","","","","",""
"vsl-grid-attention-check","105","330426","0.0-5.0-3.0-0.2-0.2","","null","[[0,""img/square.png"",0],[""img/square.png"",""img/attention.png"",""img/square.png""],[""img/square.png"",0,""img/square.png""]]","","","","","null","","","","","","","","","",""
"vsl-grid-attention-check","106","333441","0.0-5.0-3.0-0.3-0.3","","null","[[""img/square.png"",0,0],[0,""img/attention.png"",""img/square.png""],[""img/square.png"",""img/square.png"",""img/square.png""]]","","","","","null","","","","","","","","","",""
"vsl-grid-attention-check","107","336452","0.0-5.0-3.0-0.4-0.4","","null","[[0,""img/square.png"",""img/square.png""],[""img/square.png"",""img/attention.png"",""img/square.png""],[0,""img/square.png"",0]]","","","","","null","","","","","","","","","",""
"vsl-grid-attention-check","108","339471","0.0-5.0-3.0-0.5-0.5","","null","[[""img/square.png"",""img/square.png"",0],[""img/square.png"",""img/attention.png"",0],[""img/square.png"",0,""img/square.png""]]","","","","","null","","","","","","","","","",""
"vsl-grid-attention-check","109","340779","0.0-5.0-3.0-0.6-0.6","","1304","[[0,""img/square.png"",""img/square.png""],[""img/square.png"",""img/attention.png"",""img/square.png""],[""img/square.png"",0,0]]","","","","","32","","","","","","","","","",""
"html-keyboard-response","110","341787","0.0-5.0-3.0-1.0","","null"," ","","","","","null","","","","","","","","","",""
"vsl-grid-scene-snap","111","343804","0.0-5.0-4.0-0.0","","","[[0,""img/obj1.png"",""img/obj6.png""],[""img/obj8.png"",""img/obj3.png"",0],[""img/obj9.png"",0,""img/obj7.png""]]","","","1,2,1,2,1,4,2,2,6","46","","","","","","","","","","",""
"vsl-grid-scene-snap","112","346819","0.0-5.0-4.0-1.0","","","[[0,""img/obj1.png"",""img/obj6.png""],[""img/obj12.png"",0,""img/obj10.png""],[""img/obj5.png"",""img/obj11.png"",0]]","","","1,2,2,2,1,4,3,2,5","39","","","","","","","","","","",""
"vsl-grid-scene-snap","113","349835","0.0-5.0-4.0-2.0","","","[[""img/obj1.png"",""img/obj6.png"",0],[0,""img/obj10.png"",""img/obj8.png""],[""img/obj11.png"",0,""img/obj9.png""]]","","","3,2,1,1,1,4,2,2,5","110","","","","","","","","","","",""
"vsl-grid-scene-snap","114","352866","0.0-5.0-4.0-3.0","","","[[""img/obj1.png"",""img/obj6.png"",0],[0,""img/obj10.png"",""img/obj12.png""],[""img/obj11.png"",0,""img/obj5.png""]]","","","3,2,2,1,1,4,2,2,5","111","","","","","","","","","","",""
"vsl-grid-scene-snap","115","355883","0.0-5.0-4.0-4.0","","","[[""img/obj2.png"",""img/obj4.png"",""img/obj12.png""],[""img/obj3.png"",0,""img/obj5.png""],[0,""img/obj7.png"",0]]","","","3,1,2,1,1,3,1,2,6","77","","","","","","","","","","",""
"vsl-grid-scene-snap","116","358908","0.0-5.0-4.0-5.0","","","[[0,0,""img/obj12.png""],[0,""img/obj3.png"",""img/obj5.png""],[""img/obj1.png"",""img/obj6.png"",""img/obj7.png""]]","","","3,1,2,1,3,4,2,2,6","107","","","","","","","","","","",""
"vsl-grid-scene-snap","117","361914","0.0-5.0-4.0-6.0","","","[[0,""img/obj2.png"",""img/obj4.png""],[0,""img/obj10.png"",""img/obj12.png""],[""img/obj11.png"",0,""img/obj5.png""]]","","","3,2,2,2,1,3,2,2,5","121","","","","","","","","","","",""
"vsl-grid-scene-snap","118","364934","0.0-5.0-4.0-7.0","","","[[""img/obj12.png"",""img/obj1.png"",""img/obj6.png""],[""img/obj5.png"",0,""img/obj10.png""],[0,""img/obj11.png"",0]]","","","1,1,2,2,1,4,3,2,5","3","","","","","","","","","","",""
"vsl-grid-scene-snap","119","367954","0.0-5.0-4.0-8.0","","","[[0,0,""img/obj8.png""],[0,""img/obj3.png"",""img/obj9.png""],[""img/obj1.png"",""img/obj6.png"",""img/obj7.png""]]","","","3,1,1,1,3,4,2,2,6","106","","","","","","","","","","",""
"vsl-grid-scene-snap","120","370961","0.0-5.0-4.0-9.0","","","[[""img/obj1.png"",""img/obj6.png"",0],[""img/obj3.png"",0,""img/obj8.png""],[0,""img/obj7.png"",""img/obj9.png""]]","","","3,2,1,1,1,4,1,2,6","114","","","","","","","","","","",""
"vsl-grid-scene-snap","121","373976","0.0-5.0-4.0-10.0","","","[[0,0,""img/obj8.png""],[0,""img/obj10.png"",""img/obj9.png""],[""img/obj11.png"",""img/obj2.png"",""img/obj4.png""]]","","","3,1,1,2,3,3,2,2,5","84","","","","","","","","","","",""
"vsl-grid-scene-snap","122","376992","0.0-5.0-4.0-11.0","","","[[0,""img/obj2.png"",""img/obj4.png""],[""img/obj8.png"",""img/obj3.png"",0],[""img/obj9.png"",0,""img/obj7.png""]]","","","1,2,1,2,1,3,2,2,6","44","","","","","","","","","","",""
"vsl-grid-scene-snap","123","380008","0.0-5.0-4.0-12.0","","","[[0,""img/obj1.png"",""img/obj6.png""],[""img/obj3.png"",0,""img/obj12.png""],[0,""img/obj7.png"",""img/obj5.png""]]","","","3,2,2,2,1,4,1,2,6","127","","","","","","","","","","",""
"vsl-grid-scene-snap","124","383025","0.0-5.0-4.0-13.0","","","[[""img/obj12.png"",0,""img/obj10.png""],[""img/obj5.png"",""img/obj11.png"",0],[""img/obj1.png"",""img/obj6.png"",0]]","","","1,1,2,1,3,4,3,1,5","27","","","","","","","","","","",""
"vsl-grid-scene-snap","125","386050","0.0-5.0-4.0-14.0","","","[[""img/obj8.png"",0,""img/obj10.png""],[""img/obj9.png"",""img/obj11.png"",0],[0,""img/obj1.png"",""img/obj6.png""]]","","","1,1,1,2,3,4,3,1,5","14","","","","","","","","","","",""
"vsl-grid-scene-snap","126","389071","0.0-5.0-4.0-15.0","","","[[""img/obj2.png"",""img/obj4.png"",""img/obj12.png""],[0,""img/obj10.png"",""img/obj5.png""],[""img/obj11.png"",0,0]]","","","3,1,2,1,1,3,2,2,5","73","","","","","","","","","","",""
"vsl-grid-scene-snap","127","392087","0.0-5.0-4.0-16.0","","","[[""img/obj1.png"",""img/obj6.png"",""img/obj10.png""],[""img/obj12.png"",""img/obj11.png"",0],[""img/obj5.png"",0,0]]","","","1,2,2,1,1,4,3,1,5","67","","","","","","","","","","",""
"vsl-grid-scene-snap","128","395102","0.0-5.0-4.0-17.0","","","[[0,""img/obj3.png"",0],[""img/obj8.png"",0,""img/obj7.png""],[""img/obj9.png"",""img/obj1.png"",""img/obj6.png""]]","","","1,2,1,2,3,4,2,1,6","54","","","","","","","","","","",""
"vsl-grid-scene-snap","129","398118","0.0-5.0-4.0-18.0","","","[[""img/obj2.png"",""img/obj4.png"",""img/obj12.png""],[0,""img/obj3.png"",""img/obj5.png""],[0,0,""img/obj7.png""]]","","","3,1,2,1,1,3,2,2,6","81","","","","","","","","","","",""
"vsl-grid-scene-snap","130","401133","0.0-5.0-4.0-19.0","","","[[0,""img/obj2.png"",""img/obj4.png""],[""img/obj12.png"",0,""img/obj10.png""],[""img/obj5.png"",""img/obj11.png"",0]]","","","1,2,2,2,1,3,3,2,5","37","","","","","","","","","","",""
"vsl-grid-scene-snap","131","404149","0.0-5.0-4.0-20.0","","","[[0,""img/obj10.png"",""img/obj12.png""],[""img/obj11.png"",0,""img/obj5.png""],[0,""img/obj2.png"",""img/obj4.png""]]","","","3,1,2,2,3,3,2,1,5","89","","","","","","","","","","",""
"vsl-grid-scene-snap","132","407165","0.0-5.0-4.0-21.0","","","[[0,""img/obj1.png"",""img/obj6.png""],[""img/obj3.png"",0,""img/obj8.png""],[0,""img/obj7.png"",""img/obj9.png""]]","","","3,2,1,2,1,4,1,2,6","126","","","","","","","","","","",""
"vsl-grid-scene-snap","133","410181","0.0-5.0-4.0-22.0","","","[[""img/obj12.png"",0,""img/obj10.png""],[""img/obj5.png"",""img/obj11.png"",0],[0,""img/obj1.png"",""img/obj6.png""]]","","","1,1,2,2,3,4,3,1,5","15","","","","","","","","","","",""
"vsl-grid-scene-snap","134","413212","0.0-5.0-4.0-23.0","","","[[""img/obj3.png"",""img/obj1.png"",""img/obj6.png""],[""img/obj12.png"",""img/obj7.png"",0],[""img/obj5.png"",0,0]]","","","1,2,2,2,1,4,1,1,6","43","","","","","","","","","","",""
"vsl-grid-scene-snap","135","416228","0.0-5.0-4.0-24.0","","","[[0,""img/obj2.png"",""img/obj4.png""],[""img/obj12.png"",""img/obj3.png"",0],[""img/obj5.png"",0,""img/obj7.png""]]","","","1,2,2,2,1,3,2,2,6","45","","","","","","","","","","",""
"vsl-grid-scene-snap","136","419245","0.0-5.0-4.0-25.0","","","[[""img/obj12.png"",0,""img/obj10.png""],[""img/obj5.png"",""img/obj11.png"",0],[""img/obj2.png"",""img/obj4.png"",0]]","","","1,1,2,1,3,3,3,1,5","25","","","","","","","","","","",""
"vsl-grid-scene-snap","137","422260","0.0-5.0-4.0-26.0","","","[[""img/obj12.png"",""img/obj3.png"",0],[""img/obj5.png"",0,""img/obj7.png""],[""img/obj2.png"",""img/obj4.png"",0]]","","","1,1,2,1,3,3,2,1,6","29","","","","","","","","","","",""
"vsl-grid-scene-snap","138","425276","0.0-5.0-4.0-27.0","","","[[0,""img/obj2.png"",""img/obj4.png""],[""img/obj3.png"",0,""img/obj12.png""],[0,""img/obj7.png"",""img/obj5.png""]]","","","3,2,2,2,1,3,1,2,6","125","","","","","","","","","","",""
"vsl-grid-scene-snap","139","428291","0.0-5.0-4.0-28.0","","","[[""img/obj12.png"",0,""img/obj10.png""],[""img/obj5.png"",""img/obj11.png"",0],[0,""img/obj2.png"",""img/obj4.png""]]","","","1,1,2,2,3,3,3,1,5","13","","","","","","","","","","",""
"vsl-grid-scene-snap","140","431307","0.0-5.0-4.0-29.0","","","[[0,0,""img/obj10.png""],[0,""img/obj11.png"",""img/obj12.png""],[""img/obj1.png"",""img/obj6.png"",""img/obj5.png""]]","","","3,2,2,1,3,4,3,1,5","143","","","","","","","","","","",""
"vsl-grid-scene-snap","141","434323","0.0-5.0-4.0-30.0","","","[[0,""img/obj2.png"",""img/obj4.png""],[""img/obj3.png"",0,""img/obj8.png""],[0,""img/obj7.png"",""img/obj9.png""]]","","","3,2,1,2,1,3,1,2,6","124","","","","","","","","","","",""
"vsl-grid-scene-snap","142","437338","0.0-5.0-4.0-31.0","","","[[""img/obj3.png"",0,""img/obj8.png""],[0,""img/obj7.png"",""img/obj9.png""],[0,""img/obj2.png"",""img/obj4.png""]]","","","3,1,1,2,3,3,1,1,6","92","","","","","","","","","","",""
"vsl-grid-scene-snap","143","440354","0.0-5.0-4.0-32.0","","","[[""img/obj2.png"",""img/obj4.png"",0],[""img/obj3.png"",0,""img/obj12.png""],[0,""img/obj7.png"",""img/obj5.png""]]","","","3,2,2,1,1,3,1,2,6","113","","","","","","","","","","",""
"vsl-grid-scene-snap","144","443385","0.0-5.0-4.0-33.0","","","[[""img/obj1.png"",""img/obj6.png"",""img/obj10.png""],[""img/obj8.png"",""img/obj11.png"",0],[""img/obj9.png"",0,0]]","","","1,2,1,1,1,4,3,1,5","66","","","","","","","","","","",""
"vsl-grid-scene-snap","145","446403","0.0-5.0-4.0-34.0","","","[[""img/obj3.png"",""img/obj2.png"",""img/obj4.png""],[0,""img/obj7.png"",""img/obj12.png""],[0,0,""img/obj5.png""]]","","","3,2,2,2,1,3,1,1,6","129","","","","","","","","","","",""
"vsl-grid-scene-snap","146","449428","0.0-5.0-4.0-35.0","","","[[""img/obj1.png"",""img/obj6.png"",0],[""img/obj12.png"",""img/obj3.png"",0],[""img/obj5.png"",0,""img/obj7.png""]]","","","1,2,2,1,1,4,2,2,6","71","","","","","","","","","","",""
"vsl-grid-scene-snap","147","452448","0.0-5.0-4.0-36.0","","","[[""img/obj12.png"",0,0],[""img/obj5.png"",""img/obj10.png"",0],[""img/obj11.png"",""img/obj1.png"",""img/obj6.png""]]","","","1,1,2,2,3,4,2,2,5","19","","","","","","","","","","",""
"vsl-grid-scene-snap","148","455481","0.0-5.0-4.0-37.0","","","[[0,0,""img/obj10.png""],[""img/obj8.png"",""img/obj11.png"",0],[""img/obj9.png"",""img/obj2.png"",""img/obj4.png""]]","","","1,2,1,2,3,3,3,1,5","48","","","","","","","","","","",""
"vsl-grid-scene-snap","149","458498","0.0-5.0-4.0-38.0","","","[[""img/obj1.png"",""img/obj6.png"",0],[""img/obj12.png"",0,""img/obj10.png""],[""img/obj5.png"",""img/obj11.png"",0]]","","","1,2,2,1,1,4,3,2,5","63","","","","","","","","","","",""
"vsl-grid-scene-snap","150","461530","0.0-5.0-4.0-39.0","","","[[0,0,""img/obj10.png""],[""img/obj8.png"",""img/obj11.png"",0],[""img/obj9.png"",""img/obj1.png"",""img/obj6.png""]]","","","1,2,1,2,3,4,3,1,5","50","","","","","","","","","","",""
"vsl-grid-scene-snap","151","464561","0.0-5.0-4.0-40.0","","","[[""img/obj3.png"",""img/obj2.png"",""img/obj4.png""],[0,""img/obj7.png"",""img/obj8.png""],[0,0,""img/obj9.png""]]","","","3,2,1,2,1,3,1,1,6","128","","","","","","","","","","",""
"vsl-grid-scene-snap","152","467578","0.0-5.0-4.0-41.0","","","[[""img/obj2.png"",""img/obj4.png"",""img/obj10.png""],[""img/obj12.png"",""img/obj11.png"",0],[""img/obj5.png"",0,0]]","","","1,2,2,1,1,3,3,1,5","65","","","","","","","","","","",""
"vsl-grid-scene-snap","153","470609","0.0-5.0-4.0-42.0","","","[[""img/obj1.png"",""img/obj6.png"",""img/obj8.png""],[""img/obj3.png"",0,""img/obj9.png""],[0,""img/obj7.png"",0]]","","","3,1,1,1,1,4,1,2,6","78","","","","","","","","","","",""
"vsl-grid-scene-snap","154","473625","0.0-5.0-4.0-43.0","","","[[""img/obj12.png"",""img/obj1.png"",""img/obj6.png""],[""img/obj5.png"",""img/obj10.png"",0],[""img/obj11.png"",0,0]]","","","1,1,2,2,1,4,2,2,5","7","","","","","","","","","","",""
"vsl-grid-scene-snap","155","476641","0.0-5.0-4.0-44.0","","","[[""img/obj2.png"",""img/obj4.png"",""img/obj10.png""],[0,""img/obj11.png"",""img/obj12.png""],[0,0,""img/obj5.png""]]","","","3,2,2,1,1,3,3,1,5","117","","","","","","","","","","",""
"vsl-grid-scene-snap","156","479656","0.0-5.0-4.0-45.0","","","[[""img/obj8.png"",""img/obj3.png"",0],[""img/obj9.png"",0,""img/obj7.png""],[0,""img/obj1.png"",""img/obj6.png""]]","","","1,1,1,2,3,4,2,1,6","22","","","","","","","","","","",""
"vsl-grid-scene-snap","157","482672","0.0-5.0-4.0-46.0","","","[[0,""img/obj10.png"",0],[""img/obj11.png"",0,""img/obj12.png""],[""img/obj1.png"",""img/obj6.png"",""img/obj5.png""]]","","","3,2,2,1,3,4,2,1,5","135","","","","","","","","","","",""
"vsl-grid-scene-snap","158","485688","0.0-5.0-4.0-47.0","","","[[0,""img/obj10.png"",""img/obj12.png""],[""img/obj11.png"",0,""img/obj5.png""],[0,""img/obj1.png"",""img/obj6.png""]]","","","3,1,2,2,3,4,2,1,5","91","","","","","","","","","","",""
"vsl-grid-attention-check","159","489722","0.0-5.0-5.0-0.0-0.0","","null","[[0,""img/square.png"",""img/square.png""],[""img/square.png"",""img/attention.png"",""img/square.png""],[0,0,""img/square.png""]]","","","","","null","","","","","","","","","",""
"vsl-grid-attention-check","160","492735","0.0-5.0-5.0-0.1-0.1","","null","[[0,""img/square.png"",0],[""img/square.png"",""img/attention.png"",""img/square.png""],[""img/square.png"",0,""img/square.png""]]","","","","","null","","","","","","","","","",""
"vsl-grid-attention-check","161","495750","0.0-5.0-5.0-0.2-0.2","","null","[[""img/square.png"",""img/square.png"",0],[""img/square.png"",""img/attention.png"",0],[""img/square.png"",""img/square.png"",0]]","","","","","null","","","","","","","","","",""
"vsl-grid-attention-check","162","498767","0.0-5.0-5.0-0.3-0.3","","null","[[""img/square.png"",0,""img/square.png""],[0,""img/attention.png"",""img/square.png""],[0,""img/square.png"",""img/square.png""]]","","","","","null","","","","","","","","","",""
"vsl-grid-attention-check","163","500500","0.0-5.0-5.0-0.4-0.4","","1729.699999988079","[[0,0,""img/square.png""],[0,""img/attention.png"",""img/square.png""],[""img/square.png"",""img/square.png"",""img/square.png""]]","","","","","32","","","","","","","","","",""
"html-keyboard-response","164","501503","0.0-5.0-5.0-1.0","","null"," ","","","","","null","","","","","","","","","",""
"vsl-grid-scene-snap","165","503518","0.0-5.0-6.0-0.0","","","[[0,""img/obj10.png"",0],[""img/obj11.png"",0,""img/obj12.png""],[""img/obj2.png"",""img/obj4.png"",""img/obj5.png""]]","","","3,2,2,1,3,3,2,1,5","133","","","","","","","","","","",""
"vsl-grid-scene-snap","166","506530","0.0-5.0-6.0-1.0","","","[[""img/obj12.png"",""img/obj2.png"",""img/obj4.png""],[""img/obj5.png"",""img/obj3.png"",0],[0,0,""img/obj7.png""]]","","","1,1,2,2,1,3,2,2,6","9","","","","","","","","","","",""
"vsl-grid-scene-snap","167","509546","0.0-5.0-6.0-2.0","","","[[""img/obj8.png"",0,""img/obj10.png""],[""img/obj9.png"",""img/obj11.png"",0],[""img/obj2.png"",""img/obj4.png"",0]]","","","1,1,1,1,3,3,3,1,5","24","","","","","","","","","","",""
"vsl-grid-scene-snap","168","512561","0.0-5.0-6.0-3.0","","","[[""img/obj3.png"",0,0],[0,""img/obj7.png"",""img/obj8.png""],[""img/obj2.png"",""img/obj4.png"",""img/obj9.png""]]","","","3,2,1,1,3,3,1,1,6","136","","","","","","","","","","",""
"vsl-grid-scene-snap","169","515579","0.0-5.0-6.0-4.0","","","[[""img/obj8.png"",""img/obj1.png"",""img/obj6.png""],[""img/obj9.png"",""img/obj10.png"",0],[""img/obj11.png"",0,0]]","","","1,1,1,2,1,4,2,2,5","6","","","","","","","","","","",""
"vsl-grid-scene-snap","170","518593","0.0-5.0-6.0-5.0","","","[[0,""img/obj10.png"",0],[""img/obj11.png"",0,""img/obj8.png""],[""img/obj2.png"",""img/obj4.png"",""img/obj9.png""]]","","","3,2,1,1,3,3,2,1,5","132","","","","","","","","","","",""
"vsl-grid-scene-snap","171","521608","0.0-5.0-6.0-6.0","","","[[""img/obj3.png"",0,""img/obj12.png""],[0,""img/obj7.png"",""img/obj5.png""],[0,""img/obj2.png"",""img/obj4.png""]]","","","3,1,2,2,3,3,1,1,6","93","","","","","","","","","","",""
"vsl-grid-scene-snap","172","524623","0.0-5.0-6.0-7.0","","","[[0,""img/obj1.png"",""img/obj6.png""],[""img/obj12.png"",""img/obj3.png"",0],[""img/obj5.png"",0,""img/obj7.png""]]","","","1,2,2,2,1,4,2,2,6","47","","","","","","","","","","",""
"vsl-grid-scene-snap","173","527639","0.0-5.0-6.0-8.0","","","[[""img/obj3.png"",0,""img/obj12.png""],[0,""img/obj7.png"",""img/obj5.png""],[""img/obj1.png"",""img/obj6.png"",0]]","","","3,1,2,1,3,4,1,1,6","103","","","","","","","","","","",""
"vsl-grid-scene-snap","174","530655","0.0-5.0-6.0-9.0","","","[[""img/obj2.png"",""img/obj4.png"",0],[0,""img/obj10.png"",""img/obj8.png""],[""img/obj11.png"",0,""img/obj9.png""]]","","","3,2,1,1,1,3,2,2,5","108","","","","","","","","","","",""
"vsl-grid-scene-snap","175","533671","0.0-5.0-6.0-10.0","","","[[""img/obj1.png"",""img/obj6.png"",0],[""img/obj8.png"",""img/obj3.png"",0],[""img/obj9.png"",0,""img/obj7.png""]]","","","1,2,1,1,1,4,2,2,6","70","","","","","","","","","","",""
"vsl-grid-scene-snap","176","536686","0.0-5.0-6.0-11.0","","","[[""img/obj8.png"",""img/obj1.png"",""img/obj6.png""],[""img/obj9.png"",""img/obj3.png"",0],[0,0,""img/obj7.png""]]","","","1,1,1,2,1,4,2,2,6","10","","","","","","","","","","",""
"vsl-grid-scene-snap","177","539702","0.0-5.0-6.0-12.0","","","[[""img/obj1.png"",""img/obj6.png"",""img/obj10.png""],[0,""img/obj11.png"",""img/obj8.png""],[0,0,""img/obj9.png""]]","","","3,2,1,1,1,4,3,1,5","118","","","","","","","","","","",""
"vsl-grid-scene-snap","178","542717","0.0-5.0-6.0-13.0","","","[[""img/obj3.png"",0,0],[""img/obj8.png"",""img/obj7.png"",0],[""img/obj9.png"",""img/obj2.png"",""img/obj4.png""]]","","","1,2,1,2,3,3,1,1,6","56","","","","","","","","","","",""
"vsl-grid-scene-snap","179","545733","0.0-5.0-6.0-14.0","","","[[0,""img/obj10.png"",""img/obj12.png""],[""img/obj11.png"",0,""img/obj5.png""],[""img/obj2.png"",""img/obj4.png"",0]]","","","3,1,2,1,3,3,2,1,5","97","","","","","","","","","","",""
"vsl-grid-scene-snap","180","548748","0.0-5.0-6.0-15.0","","","[[""img/obj3.png"",0,""img/obj12.png""],[0,""img/obj7.png"",""img/obj5.png""],[0,""img/obj1.png"",""img/obj6.png""]]","","","3,1,2,2,3,4,1,1,6","95","","","","","","","","","","",""
"vsl-grid-scene-snap","181","551764","0.0-5.0-6.0-16.0","","","[[0,""img/obj2.png"",""img/obj4.png""],[""img/obj8.png"",0,""img/obj10.png""],[""img/obj9.png"",""img/obj11.png"",0]]","","","1,2,1,2,1,3,3,2,5","36","","","","","","","","","","",""
"vsl-grid-scene-snap","182","554780","0.0-5.0-6.0-17.0","","","[[0,0,""img/obj10.png""],[""img/obj12.png"",""img/obj11.png"",0],[""img/obj5.png"",""img/obj2.png"",""img/obj4.png""]]","","","1,2,2,2,3,3,3,1,5","49","","","","","","","","","","",""
"vsl-grid-scene-snap","183","557796","0.0-5.0-6.0-18.0","","","[[""img/obj2.png"",""img/obj4.png"",0],[""img/obj12.png"",""img/obj3.png"",0],[""img/obj5.png"",0,""img/obj7.png""]]","","","1,2,2,1,1,3,2,2,6","69","","","","","","","","","","",""
"vsl-grid-scene-snap","184","560810","0.0-5.0-6.0-19.0","","","[[""img/obj2.png"",""img/obj4.png"",""img/obj10.png""],[""img/obj8.png"",""img/obj11.png"",0],[""img/obj9.png"",0,0]]","","","1,2,1,1,1,3,3,1,5","64","","","","","","","","","","",""
"vsl-grid-scene-snap","185","563827","0.0-5.0-6.0-20.0","","","[[""img/obj8.png"",""img/obj1.png"",""img/obj6.png""],[""img/obj9.png"",0,""img/obj10.png""],[0,""img/obj11.png"",0]]","","","1,1,1,2,1,4,3,2,5","2","","","","","","","","","","",""
"vsl-grid-scene-snap","186","566843","0.0-5.0-6.0-21.0","","","[[""img/obj8.png"",""img/obj3.png"",0],[""img/obj9.png"",0,""img/obj7.png""],[0,""img/obj2.png"",""img/obj4.png""]]","","","1,1,1,2,3,3,2,1,6","20","","","","","","","","","","",""
"vsl-grid-scene-snap","187","569864","0.0-5.0-6.0-22.0","","","[[""img/obj3.png"",""img/obj2.png"",""img/obj4.png""],[""img/obj8.png"",""img/obj7.png"",0],[""img/obj9.png"",0,0]]","","","1,2,1,2,1,3,1,1,6","40","","","","","","","","","","",""
"vsl-grid-scene-snap","188","572873","0.0-5.0-6.0-23.0","","","[[""img/obj2.png"",""img/obj4.png"",0],[""img/obj3.png"",0,""img/obj8.png""],[0,""img/obj7.png"",""img/obj9.png""]]","","","3,2,1,1,1,3,1,2,6","112","","","","","","","","","","",""
"vsl-grid-scene-snap","189","575897","0.0-5.0-6.0-24.0","","","[[0,0,""img/obj8.png""],[0,""img/obj3.png"",""img/obj9.png""],[""img/obj2.png"",""img/obj4.png"",""img/obj7.png""]]","","","3,1,1,1,3,3,2,2,6","104","","","","","","","","","","",""
"vsl-grid-scene-snap","190","578920","0.0-5.0-6.0-25.0","","","[[""img/obj2.png"",""img/obj4.png"",""img/obj10.png""],[0,""img/obj11.png"",""img/obj8.png""],[0,0,""img/obj9.png""]]","","","3,2,1,1,1,3,3,1,5","116","","","","","","","","","","",""
"vsl-grid-scene-snap","191","581937","0.0-5.0-6.0-26.0","","","[[""img/obj3.png"",0,0],[""img/obj8.png"",""img/obj7.png"",0],[""img/obj9.png"",""img/obj1.png"",""img/obj6.png""]]","","","1,2,1,2,3,4,1,1,6","58","","","","","","","","","","",""
"vsl-grid-scene-snap","192","584953","0.0-5.0-6.0-27.0","","","[[""img/obj12.png"",""img/obj3.png"",0],[""img/obj5.png"",0,""img/obj7.png""],[0,""img/obj2.png"",""img/obj4.png""]]","","","1,1,2,2,3,3,2,1,6","21","","","","","","","","","","",""
"vsl-grid-scene-snap","193","587968","0.0-5.0-6.0-28.0","","","[[""img/obj8.png"",0,""img/obj10.png""],[""img/obj9.png"",""img/obj11.png"",0],[""img/obj1.png"",""img/obj6.png"",0]]","","","1,1,1,1,3,4,3,1,5","26","","","","","","","","","","",""
"vsl-grid-scene-snap","194","590983","0.0-5.0-6.0-29.0","","","[[""img/obj3.png"",""img/obj1.png"",""img/obj6.png""],[0,""img/obj7.png"",""img/obj8.png""],[0,0,""img/obj9.png""]]","","","3,2,1,2,1,4,1,1,6","130","","","","","","","","","","",""
"vsl-grid-scene-snap","195","593999","0.0-5.0-6.0-30.0","","","[[""img/obj8.png"",""img/obj2.png"",""img/obj4.png""],[""img/obj9.png"",""img/obj10.png"",0],[""img/obj11.png"",0,0]]","","","1,1,1,2,1,3,2,2,5","4","","","","","","","","","","",""
"vsl-grid-scene-snap","196","597015","0.0-5.0-6.0-31.0","","","[[""img/obj1.png"",""img/obj6.png"",""img/obj12.png""],[""img/obj3.png"",0,""img/obj5.png""],[0,""img/obj7.png"",0]]","","","3,1,2,1,1,4,1,2,6","79","","","","","","","","","","",""
"vsl-grid-scene-snap","197","600040","0.0-5.0-6.0-32.0","","","[[""img/obj3.png"",0,0],[0,""img/obj7.png"",""img/obj12.png""],[""img/obj1.png"",""img/obj6.png"",""img/obj5.png""]]","","","3,2,2,1,3,4,1,1,6","139","","","","","","","","","","",""
"vsl-grid-scene-snap","198","603046","0.0-5.0-6.0-33.0","","","[[""img/obj3.png"",""img/obj1.png"",""img/obj6.png""],[0,""img/obj7.png"",""img/obj12.png""],[0,0,""img/obj5.png""]]","","","3,2,2,2,1,4,1,1,6","131","","","","","","","","","","",""
"vsl-grid-scene-snap","199","606062","0.0-5.0-6.0-34.0","","","[[""img/obj3.png"",0,0],[""img/obj12.png"",""img/obj7.png"",0],[""img/obj5.png"",""img/obj2.png"",""img/obj4.png""]]","","","1,2,2,2,3,3,1,1,6","57","","","","","","","","","","",""
"vsl-grid-scene-snap","200","609077","0.0-5.0-6.0-35.0","","","[[""img/obj8.png"",""img/obj3.png"",0],[""img/obj9.png"",0,""img/obj7.png""],[""img/obj1.png"",""img/obj6.png"",0]]","","","1,1,1,1,3,4,2,1,6","30","","","","","","","","","","",""
"vsl-grid-scene-snap","201","612093","0.0-5.0-6.0-36.0","","","[[""img/obj3.png"",""img/obj2.png"",""img/obj4.png""],[""img/obj12.png"",""img/obj7.png"",0],[""img/obj5.png"",0,0]]","","","1,2,2,2,1,3,1,1,6","41","","","","","","","","","","",""
"vsl-grid-scene-snap","202","615108","0.0-5.0-6.0-37.0","","","[[0,""img/obj1.png"",""img/obj6.png""],[0,""img/obj10.png"",""img/obj12.png""],[""img/obj11.png"",0,""img/obj5.png""]]","","","3,2,2,2,1,4,2,2,5","123","","","","","","","","","","",""
"vsl-grid-scene-snap","203","618124","0.0-5.0-6.0-38.0","","","[[""img/obj12.png"",""img/obj3.png"",0],[""img/obj5.png"",0,""img/obj7.png""],[""img/obj1.png"",""img/obj6.png"",0]]","","","1,1,2,1,3,4,2,1,6","31","","","","","","","","","","",""
"vsl-grid-scene-snap","204","621139","0.0-5.0-6.0-39.0","","","[[""img/obj12.png"",""img/obj3.png"",0],[""img/obj5.png"",0,""img/obj7.png""],[0,""img/obj1.png"",""img/obj6.png""]]","","","1,1,2,2,3,4,2,1,6","23","","","","","","","","","","",""
"vsl-grid-scene-snap","205","624171","0.0-5.0-6.0-40.0","","","[[""img/obj8.png"",0,""img/obj10.png""],[""img/obj9.png"",""img/obj11.png"",0],[0,""img/obj2.png"",""img/obj4.png""]]","","","1,1,1,2,3,3,3,1,5","12","","","","","","","","","","",""
"vsl-grid-scene-snap","206","627187","0.0-5.0-6.0-41.0","","","[[""img/obj12.png"",0,0],[""img/obj5.png"",""img/obj3.png"",0],[""img/obj1.png"",""img/obj6.png"",""img/obj7.png""]]","","","1,1,2,1,3,4,2,2,6","35","","","","","","","","","","",""
"vsl-grid-scene-snap","207","630203","0.0-5.0-6.0-42.0","","","[[""img/obj8.png"",0,0],[""img/obj9.png"",""img/obj10.png"",0],[""img/obj11.png"",""img/obj2.png"",""img/obj4.png""]]","","","1,1,1,2,3,3,2,2,5","16","","","","","","","","","","",""
"vsl-grid-scene-snap","208","633219","0.0-5.0-6.0-43.0","","","[[""img/obj12.png"",""img/obj2.png"",""img/obj4.png""],[""img/obj5.png"",""img/obj10.png"",0],[""img/obj11.png"",0,0]]","","","1,1,2,2,1,3,2,2,5","5","","","","","","","","","","",""
"vsl-grid-scene-snap","209","636260","0.0-5.0-6.0-44.0","","","[[""img/obj8.png"",0,0],[""img/obj9.png"",""img/obj10.png"",0],[""img/obj11.png"",""img/obj1.png"",""img/obj6.png""]]","","","1,1,1,2,3,4,2,2,5","18","","","","","","","","","","",""
"vsl-grid-scene-snap","210","639282","0.0-5.0-6.0-45.0","","","[[""img/obj8.png"",0,0],[""img/obj9.png"",""img/obj3.png"",0],[""img/obj1.png"",""img/obj6.png"",""img/obj7.png""]]","","","1,1,1,1,3,4,2,2,6","34","","","","","","","","","","",""
"vsl-grid-scene-snap","211","642299","0.0-5.0-6.0-46.0","","","[[""img/obj2.png"",""img/obj4.png"",""img/obj8.png""],[0,""img/obj10.png"",""img/obj9.png""],[""img/obj11.png"",0,0]]","","","3,1,1,1,1,3,2,2,5","72","","","","","","","","","","",""
"vsl-grid-scene-snap","212","645314","0.0-5.0-6.0-47.0","","","[[""img/obj8.png"",""img/obj3.png"",0],[""img/obj9.png"",0,""img/obj7.png""],[""img/obj2.png"",""img/obj4.png"",0]]","","","1,1,1,1,3,3,2,1,6","28","","","","","","","","","","",""
"vsl-grid-attention-check","213","649345","0.0-5.0-7.0-0.0-0.0","","null","[[0,0,""img/square.png""],[""img/square.png"",""img/attention.png"",0],[""img/square.png"",""img/square.png"",""img/square.png""]]","","","","","null","","","","","","","","","",""
"vsl-grid-attention-check","214","652362","0.0-5.0-7.0-0.1-0.1","","null","[[0,0,""img/square.png""],[0,""img/attention.png"",""img/square.png""],[""img/square.png"",""img/square.png"",""img/square.png""]]","","","","","null","","","","","","","","","",""
"vsl-grid-attention-check","215","655378","0.0-5.0-7.0-0.2-0.2","","null","[[0,0,""img/square.png""],[""img/square.png"",""img/attention.png"",""img/square.png""],[""img/square.png"",0,""img/square.png""]]","","","","","null","","","","","","","","","",""
"vsl-grid-attention-check","216","658393","0.0-5.0-7.0-0.3-0.3","","null","[[0,0,""img/square.png""],[""img/square.png"",""img/attention.png"",""img/square.png""],[""img/square.png"",""img/square.png"",0]]","","","","","null","","","","","","","","","",""
"vsl-grid-attention-check","217","661409","0.0-5.0-7.0-0.4-0.4","","null","[[0,""img/square.png"",""img/square.png""],[""img/square.png"",""img/attention.png"",0],[0,""img/square.png"",""img/square.png""]]","","","","","null","","","","","","","","","",""
"vsl-grid-attention-check","218","663391","0.0-5.0-7.0-0.5-0.5","","1978.800000011921","[[0,""img/square.png"",""img/square.png""],[""img/square.png"",""img/attention.png"",0],[""img/square.png"",0,""img/square.png""]]","","","","","32","","","","","","","","","",""
"html-keyboard-response","219","664406","0.0-5.0-7.0-1.0","","null"," ","","","","","null","","","","","","","","","",""
"vsl-grid-scene-snap","220","666422","0.0-5.0-8.0-0.0","","","[[""img/obj3.png"",0,""img/obj8.png""],[0,""img/obj7.png"",""img/obj9.png""],[""img/obj1.png"",""img/obj6.png"",0]]","","","3,1,1,1,3,4,1,1,6","102","","","","","","","","","","",""
"vsl-grid-scene-snap","221","669445","0.0-5.0-8.0-1.0","","","[[""img/obj2.png"",""img/obj4.png"",0],[0,""img/obj10.png"",""img/obj12.png""],[""img/obj11.png"",0,""img/obj5.png""]]","","","3,2,2,1,1,3,2,2,5","109","","","","","","","","","","",""
"vsl-grid-scene-snap","222","672465","0.0-5.0-8.0-2.0","","","[[""img/obj1.png"",""img/obj6.png"",0],[""img/obj3.png"",0,""img/obj12.png""],[0,""img/obj7.png"",""img/obj5.png""]]","","","3,2,2,1,1,4,1,2,6","115","","","","","","","","","","",""
"vsl-grid-scene-snap","223","675491","0.0-5.0-8.0-3.0","","","[[""img/obj2.png"",""img/obj4.png"",""img/obj8.png""],[0,""img/obj3.png"",""img/obj9.png""],[0,0,""img/obj7.png""]]","","","3,1,1,1,1,3,2,2,6","80","","","","","","","","","","",""
"vsl-grid-scene-snap","224","678504","0.0-5.0-8.0-4.0","","","[[0,""img/obj3.png"",0],[""img/obj12.png"",0,""img/obj7.png""],[""img/obj5.png"",""img/obj2.png"",""img/obj4.png""]]","","","1,2,2,2,3,3,2,1,6","53","","","","","","","","","","",""
"vsl-grid-scene-snap","225","681521","0.0-5.0-8.0-5.0","","","[[""img/obj12.png"",""img/obj1.png"",""img/obj6.png""],[""img/obj5.png"",""img/obj3.png"",0],[0,0,""img/obj7.png""]]","","","1,1,2,2,1,4,2,2,6","11","","","","","","","","","","",""
"vsl-grid-scene-snap","226","684535","0.0-5.0-8.0-6.0","","","[[""img/obj2.png"",""img/obj4.png"",0],[""img/obj8.png"",0,""img/obj10.png""],[""img/obj9.png"",""img/obj11.png"",0]]","","","1,2,1,1,1,3,3,2,5","60","","","","","","","","","","",""
"vsl-grid-scene-snap","227","687552","0.0-5.0-8.0-7.0","","","[[""img/obj12.png"",0,0],[""img/obj5.png"",""img/obj3.png"",0],[""img/obj2.png"",""img/obj4.png"",""img/obj7.png""]]","","","1,1,2,1,3,3,2,2,6","33","","","","","","","","","","",""
"vsl-grid-scene-snap","228","690562","0.0-5.0-8.0-8.0","","","[[""img/obj8.png"",""img/obj2.png"",""img/obj4.png""],[""img/obj9.png"",0,""img/obj10.png""],[0,""img/obj11.png"",0]]","","","1,1,1,2,1,3,3,2,5","0","","","","","","","","","","",""
"vsl-grid-scene-snap","229","693573","0.0-5.0-8.0-9.0","","","[[0,""img/obj10.png"",""img/obj8.png""],[""img/obj11.png"",0,""img/obj9.png""],[""img/obj1.png"",""img/obj6.png"",0]]","","","3,1,1,1,3,4,2,1,5","98","","","","","","","","","","",""
"vsl-grid-scene-snap","230","696596","0.0-5.0-8.0-10.0","","","[[""img/obj1.png"",""img/obj6.png"",""img/obj8.png""],[0,""img/obj3.png"",""img/obj9.png""],[0,0,""img/obj7.png""]]","","","3,1,1,1,1,4,2,2,6","82","","","","","","","","","","",""
"vsl-grid-scene-snap","231","699620","0.0-5.0-8.0-11.0","","","[[0,""img/obj2.png"",""img/obj4.png""],[0,""img/obj10.png"",""img/obj8.png""],[""img/obj11.png"",0,""img/obj9.png""]]","","","3,2,1,2,1,3,2,2,5","120","","","","","","","","","","",""
"vsl-grid-scene-snap","232","702644","0.0-5.0-8.0-12.0","","","[[0,0,""img/obj12.png""],[0,""img/obj10.png"",""img/obj5.png""],[""img/obj11.png"",""img/obj1.png"",""img/obj6.png""]]","","","3,1,2,2,3,4,2,2,5","87","","","","","","","","","","",""
"vsl-grid-scene-snap","233","705659","0.0-5.0-8.0-13.0","","","[[0,""img/obj3.png"",0],[""img/obj8.png"",0,""img/obj7.png""],[""img/obj9.png"",""img/obj2.png"",""img/obj4.png""]]","","","1,2,1,2,3,3,2,1,6","52","","","","","","","","","","",""
"vsl-grid-scene-snap","234","708675","0.0-5.0-8.0-14.0","","","[[""img/obj12.png"",""img/obj2.png"",""img/obj4.png""],[""img/obj5.png"",0,""img/obj10.png""],[0,""img/obj11.png"",0]]","","","1,1,2,2,1,3,3,2,5","1","","","","","","","","","","",""
"vsl-grid-scene-snap","235","711691","0.0-5.0-8.0-15.0","","","[[""img/obj12.png"",0,0],[""img/obj5.png"",""img/obj10.png"",0],[""img/obj11.png"",""img/obj2.png"",""img/obj4.png""]]","","","1,1,2,2,3,3,2,2,5","17","","","","","","","","","","",""
"vsl-grid-scene-snap","236","714714","0.0-5.0-8.0-16.0","","","[[""img/obj1.png"",""img/obj6.png"",0],[""img/obj8.png"",0,""img/obj10.png""],[""img/obj9.png"",""img/obj11.png"",0]]","","","1,2,1,1,1,4,3,2,5","62","","","","","","","","","","",""
"vsl-grid-scene-snap","237","717736","0.0-5.0-8.0-17.0","","","[[0,""img/obj10.png"",0],[""img/obj11.png"",0,""img/obj8.png""],[""img/obj1.png"",""img/obj6.png"",""img/obj9.png""]]","","","3,2,1,1,3,4,2,1,5","134","","","","","","","","","","",""
"vsl-grid-scene-snap","238","720769","0.0-5.0-8.0-18.0","","","[[0,0,""img/obj10.png""],[""img/obj12.png"",""img/obj11.png"",0],[""img/obj5.png"",""img/obj1.png"",""img/obj6.png""]]","","","1,2,2,2,3,4,3,1,5","51","","","","","","","","","","",""
"vsl-grid-scene-snap","239","723802","0.0-5.0-8.0-19.0","","","[[0,""img/obj10.png"",""img/obj8.png""],[""img/obj11.png"",0,""img/obj9.png""],[""img/obj2.png"",""img/obj4.png"",0]]","","","3,1,1,1,3,3,2,1,5","96","","","","","","","","","","",""
"vsl-grid-scene-snap","240","726820","0.0-5.0-8.0-20.0","","","[[""img/obj3.png"",0,0],[0,""img/obj7.png"",""img/obj12.png""],[""img/obj2.png"",""img/obj4.png"",""img/obj5.png""]]","","","3,2,2,1,3,3,1,1,6","137","","","","","","","","","","",""
"vsl-grid-scene-snap","241","729841","0.0-5.0-8.0-21.0","","","[[""img/obj3.png"",0,""img/obj12.png""],[0,""img/obj7.png"",""img/obj5.png""],[""img/obj2.png"",""img/obj4.png"",0]]","","","3,1,2,1,3,3,1,1,6","101","","","","","","","","","","",""
"vsl-grid-scene-snap","242","732859","0.0-5.0-8.0-22.0","","","[[0,0,""img/obj10.png""],[0,""img/obj11.png"",""img/obj8.png""],[""img/obj1.png"",""img/obj6.png"",""img/obj9.png""]]","","","3,2,1,1,3,4,3,1,5","142","","","","","","","","","","",""
"vsl-grid-scene-snap","243","735869","0.0-5.0-8.0-23.0","","","[[""img/obj8.png"",0,0],[""img/obj9.png"",""img/obj3.png"",0],[""img/obj2.png"",""img/obj4.png"",""img/obj7.png""]]","","","1,1,1,1,3,3,2,2,6","32","","","","","","","","","","",""
"vsl-grid-scene-snap","244","738874","0.0-5.0-8.0-24.0","","","[[""img/obj1.png"",""img/obj6.png"",""img/obj10.png""],[0,""img/obj11.png"",""img/obj12.png""],[0,0,""img/obj5.png""]]","","","3,2,2,1,1,4,3,1,5","119","","","","","","","","","","",""
"vsl-grid-scene-snap","245","741884","0.0-5.0-8.0-25.0","","","[[0,0,""img/obj10.png""],[0,""img/obj11.png"",""img/obj8.png""],[""img/obj2.png"",""img/obj4.png"",""img/obj9.png""]]","","","3,2,1,1,3,3,3,1,5","140","","","","","","","","","","",""
"vsl-grid-scene-snap","246","744913","0.0-5.0-8.0-26.0","","","[[0,""img/obj1.png"",""img/obj6.png""],[""img/obj8.png"",0,""img/obj10.png""],[""img/obj9.png"",""img/obj11.png"",0]]","","","1,2,1,2,1,4,3,2,5","38","","","","","","","","","","",""
"vsl-grid-scene-snap","247","747943","0.0-5.0-8.0-27.0","","","[[0,0,""img/obj8.png""],[0,""img/obj10.png"",""img/obj9.png""],[""img/obj11.png"",""img/obj1.png"",""img/obj6.png""]]","","","3,1,1,2,3,4,2,2,5","86","","","","","","","","","","",""
"vsl-grid-scene-snap","248","750960","0.0-5.0-8.0-28.0","","","[[""img/obj1.png"",""img/obj6.png"",""img/obj8.png""],[0,""img/obj10.png"",""img/obj9.png""],[""img/obj11.png"",0,0]]","","","3,1,1,1,1,4,2,2,5","74","","","","","","","","","","",""
"vsl-grid-scene-snap","249","753977","0.0-5.0-8.0-29.0","","","[[""img/obj3.png"",0,0],[0,""img/obj7.png"",""img/obj8.png""],[""img/obj1.png"",""img/obj6.png"",""img/obj9.png""]]","","","3,2,1,1,3,4,1,1,6","138","","","","","","","","","","",""
"vsl-grid-scene-snap","250","756993","0.0-5.0-8.0-30.0","","","[[0,0,""img/obj12.png""],[0,""img/obj3.png"",""img/obj5.png""],[""img/obj2.png"",""img/obj4.png"",""img/obj7.png""]]","","","3,1,2,1,3,3,2,2,6","105","","","","","","","","","","",""
"vsl-grid-scene-snap","251","760008","0.0-5.0-8.0-31.0","","","[[0,0,""img/obj12.png""],[0,""img/obj10.png"",""img/obj5.png""],[""img/obj11.png"",""img/obj2.png"",""img/obj4.png""]]","","","3,1,2,2,3,3,2,2,5","85","","","","","","","","","","",""
"vsl-grid-scene-snap","252","763024","0.0-5.0-8.0-32.0","","","[[""img/obj2.png"",""img/obj4.png"",0],[""img/obj8.png"",""img/obj3.png"",0],[""img/obj9.png"",0,""img/obj7.png""]]","","","1,2,1,1,1,3,2,2,6","68","","","","","","","","","","",""
"vsl-grid-scene-snap","253","766039","0.0-5.0-8.0-33.0","","","[[""img/obj3.png"",0,""img/obj8.png""],[0,""img/obj7.png"",""img/obj9.png""],[""img/obj2.png"",""img/obj4.png"",0]]","","","3,1,1,1,3,3,1,1,6","100","","","","","","","","","","",""
"vsl-grid-scene-snap","254","769055","0.0-5.0-8.0-34.0","","","[[""img/obj3.png"",0,""img/obj8.png""],[0,""img/obj7.png"",""img/obj9.png""],[0,""img/obj1.png"",""img/obj6.png""]]","","","3,1,1,2,3,4,1,1,6","94","","","","","","","","","","",""
"vsl-grid-scene-snap","255","772072","0.0-5.0-8.0-35.0","","","[[0,""img/obj3.png"",0],[""img/obj12.png"",0,""img/obj7.png""],[""img/obj5.png"",""img/obj1.png"",""img/obj6.png""]]","","","1,2,2,2,3,4,2,1,6","55","","","","","","","","","","",""
"vsl-grid-scene-snap","256","775086","0.0-5.0-8.0-36.0","","","[[""img/obj8.png"",""img/obj2.png"",""img/obj4.png""],[""img/obj9.png"",""img/obj3.png"",0],[0,0,""img/obj7.png""]]","","","1,1,1,2,1,3,2,2,6","8","","","","","","","","","","",""
"vsl-grid-scene-snap","257","778104","0.0-5.0-8.0-37.0","","","[[""img/obj1.png"",""img/obj6.png"",""img/obj12.png""],[0,""img/obj10.png"",""img/obj5.png""],[""img/obj11.png"",0,0]]","","","3,1,2,1,1,4,2,2,5","75","","","","","","","","","","",""
"vsl-grid-scene-snap","258","781117","0.0-5.0-8.0-38.0","","","[[""img/obj3.png"",""img/obj1.png"",""img/obj6.png""],[""img/obj8.png"",""img/obj7.png"",0],[""img/obj9.png"",0,0]]","","","1,2,1,2,1,4,1,1,6","42","","","","","","","","","","",""
"vsl-grid-scene-snap","259","784135","0.0-5.0-8.0-39.0","","","[[""img/obj2.png"",""img/obj4.png"",""img/obj8.png""],[""img/obj3.png"",0,""img/obj9.png""],[0,""img/obj7.png"",0]]","","","3,1,1,1,1,3,1,2,6","76","","","","","","","","","","",""
"vsl-grid-scene-snap","260","787153","0.0-5.0-8.0-40.0","","","[[0,""img/obj10.png"",""img/obj8.png""],[""img/obj11.png"",0,""img/obj9.png""],[0,""img/obj1.png"",""img/obj6.png""]]","","","3,1,1,2,3,4,2,1,5","90","","","","","","","","","","",""
"vsl-grid-scene-snap","261","790163","0.0-5.0-8.0-41.0","","","[[""img/obj1.png"",""img/obj6.png"",""img/obj12.png""],[0,""img/obj3.png"",""img/obj5.png""],[0,0,""img/obj7.png""]]","","","3,1,2,1,1,4,2,2,6","83","","","","","","","","","","",""
"vsl-grid-scene-snap","262","793195","0.0-5.0-8.0-42.0","","","[[0,0,""img/obj10.png""],[0,""img/obj11.png"",""img/obj12.png""],[""img/obj2.png"",""img/obj4.png"",""img/obj5.png""]]","","","3,2,2,1,3,3,3,1,5","141","","","","","","","","","","",""
"vsl-grid-scene-snap","263","796211","0.0-5.0-8.0-43.0","","","[[0,""img/obj10.png"",""img/obj12.png""],[""img/obj11.png"",0,""img/obj5.png""],[""img/obj1.png"",""img/obj6.png"",0]]","","","3,1,2,1,3,4,2,1,5","99","","","","","","","","","","",""
"vsl-grid-scene-snap","264","799227","0.0-5.0-8.0-44.0","","","[[0,""img/obj10.png"",""img/obj8.png""],[""img/obj11.png"",0,""img/obj9.png""],[0,""img/obj2.png"",""img/obj4.png""]]","","","3,1,1,2,3,3,2,1,5","88","","","","","","","","","","",""
"vsl-grid-scene-snap","265","802243","0.0-5.0-8.0-45.0","","","[[""img/obj2.png"",""img/obj4.png"",0],[""img/obj12.png"",0,""img/obj10.png""],[""img/obj5.png"",""img/obj11.png"",0]]","","","1,2,2,1,1,3,3,2,5","61","","","","","","","","","","",""
"vsl-grid-scene-snap","266","805258","0.0-5.0-8.0-46.0","","","[[0,""img/obj1.png"",""img/obj6.png""],[0,""img/obj10.png"",""img/obj8.png""],[""img/obj11.png"",0,""img/obj9.png""]]","","","3,2,1,2,1,4,2,2,5","122","","","","","","","","","","",""
"vsl-grid-scene-snap","267","808273","0.0-5.0-8.0-47.0","","","[[""img/obj3.png"",0,0],[""img/obj12.png"",""img/obj7.png"",0],[""img/obj5.png"",""img/obj1.png"",""img/obj6.png""]]","","","1,2,2,2,3,4,1,1,6","59","","","","","","","","","","",""
"vsl-grid-attention-check","268","812304","0.0-5.0-9.0-0.0-0.0","","null","[[""img/square.png"",0,""img/square.png""],[""img/square.png"",""img/attention.png"",""img/square.png""],[0,""img/square.png"",0]]","","","","","null","","","","","","","","","",""
"vsl-grid-attention-check","269","815319","0.0-5.0-9.0-0.1-0.1","","null","[[""img/square.png"",""img/square.png"",0],[""img/square.png"",""img/attention.png"",""img/square.png""],[""img/square.png"",0,0]]","","","","","null","","","","","","","","","",""
"vsl-grid-attention-check","270","818335","0.0-5.0-9.0-0.2-0.2","","null","[[""img/square.png"",""img/square.png"",""img/square.png""],[""img/square.png"",""img/attention.png"",0],[0,0,""img/square.png""]]","","","","","null","","","","","","","","","",""
"vsl-grid-attention-check","271","821355","0.0-5.0-9.0-0.3-0.3","","null","[[""img/square.png"",""img/square.png"",0],[""img/square.png"",""img/attention.png"",0],[""img/square.png"",""img/square.png"",0]]","","","","","null","","","","","","","","","",""
"vsl-grid-attention-check","272","824361","0.0-5.0-9.0-0.4-0.4","","null","[[0,""img/square.png"",""img/square.png""],[""img/square.png"",""img/attention.png"",0],[0,""img/square.png"",""img/square.png""]]","","","","","null","","","","","","","","","",""
"vsl-grid-attention-check","273","827379","0.0-5.0-9.0-0.5-0.5","","null","[[""img/square.png"",""img/square.png"",0],[0,""img/attention.png"",""img/square.png""],[0,""img/square.png"",""img/square.png""]]","","","","","null","","","","","","","","","",""
"vsl-grid-attention-check","274","830399","0.0-5.0-9.0-0.6-0.6","","null","[[""img/square.png"",0,""img/square.png""],[0,""img/attention.png"",""img/square.png""],[""img/square.png"",""img/square.png"",0]]","","","","","null","","","","","","","","","",""
"vsl-grid-attention-check","275","833414","0.0-5.0-9.0-0.7-0.7","","null","[[""img/square.png"",""img/square.png"",0],[0,""img/attention.png"",0],[""img/square.png"",""img/square.png"",""img/square.png""]]","","","","","null","","","","","","","","","",""
"vsl-grid-attention-check","276","836430","0.0-5.0-9.0-0.8-0.8","","null","[[""img/square.png"",0,""img/square.png""],[0,""img/attention.png"",""img/square.png""],[0,""img/square.png"",""img/square.png""]]","","","","","null","","","","","","","","","",""
"vsl-grid-attention-check","277","839444","0.0-5.0-9.0-0.9-0.9","","null","[[""img/square.png"",0,""img/square.png""],[0,""img/attention.png"",""img/square.png""],[""img/square.png"",0,""img/square.png""]]","","","","","null","","","","","","","","","",""
"vsl-grid-attention-check","278","842462","0.0-5.0-9.0-0.10-0.10","","null","[[0,""img/square.png"",""img/square.png""],[""img/square.png"",""img/attention.png"",0],[0,""img/square.png"",""img/square.png""]]","","","","","null","","","","","","","","","",""
"vsl-grid-attention-check","279","845477","0.0-5.0-9.0-0.11-0.11","","null","[[""img/square.png"",""img/square.png"",""img/square.png""],[0,""img/attention.png"",0],[0,""img/square.png"",""img/square.png""]]","","","","","null","","","","","","","","","",""
"vsl-grid-attention-check","280","848495","0.0-5.0-9.0-0.12-0.12","","null","[[""img/square.png"",""img/square.png"",""img/square.png""],[0,""img/attention.png"",""img/square.png""],[""img/square.png"",0,0]]","","","","","null","","","","","","","","","",""
"vsl-grid-attention-check","281","851500","0.0-5.0-9.0-0.13-0.13","","null","[[0,""img/square.png"",""img/square.png""],[""img/square.png"",""img/attention.png"",""img/square.png""],[0,""img/square.png"",0]]","","","","","null","","","","","","","","","",""
"vsl-grid-attention-check","282","854513","0.0-5.0-9.0-0.14-0.14","","null","[[0,0,""img/square.png""],[""img/square.png"",""img/attention.png"",""img/square.png""],[""img/square.png"",""img/square.png"",0]]","","","","","null","","","","","","","","","",""
"vsl-grid-attention-check","283","857522","0.0-5.0-9.0-0.15-0.15","","null","[[""img/square.png"",""img/square.png"",""img/square.png""],[""img/square.png"",""img/attention.png"",""img/square.png""],[0,0,0]]","","","","","null","","","","","","","","","",""
"vsl-grid-attention-check","284","860527","0.0-5.0-9.0-0.16-0.16","","null","[[0,0,""img/square.png""],[0,""img/attention.png"",""img/square.png""],[""img/square.png"",""img/square.png"",""img/square.png""]]","","","","","null","","","","","","","","","",""
"vsl-grid-attention-check","285","861310","0.0-5.0-9.0-0.17-0.17","","780.1999999880791","[[0,""img/square.png"",""img/square.png""],[0,""img/attention.png"",""img/square.png""],[""img/square.png"",0,""img/square.png""]]","","","","","32","","","","","","","","","",""
"html-keyboard-response","286","862313","0.0-5.0-9.0-1.0","","null"," ","","","","","null","","","","","","","","","",""
"vsl-grid-scene-snap","287","864317","0.0-5.0-10.0-0.0","","","[[0,""img/obj1.png"",""img/obj6.png""],[""img/obj8.png"",""img/obj3.png"",0],[""img/obj9.png"",0,""img/obj7.png""]]","","","1,2,1,2,1,4,2,2,6","46","","","","","","","","","","",""
"vsl-grid-scene-snap","288","867335","0.0-5.0-10.0-1.0","","","[[0,""img/obj1.png"",""img/obj6.png""],[""img/obj12.png"",0,""img/obj10.png""],[""img/obj5.png"",""img/obj11.png"",0]]","","","1,2,2,2,1,4,3,2,5","39","","","","","","","","","","",""
"vsl-grid-scene-snap","289","870350","0.0-5.0-10.0-2.0","","","[[""img/obj1.png"",""img/obj6.png"",0],[0,""img/obj10.png"",""img/obj8.png""],[""img/obj11.png"",0,""img/obj9.png""]]","","","3,2,1,1,1,4,2,2,5","110","","","","","","","","","","",""
"vsl-grid-scene-snap","290","873375","0.0-5.0-10.0-3.0","","","[[""img/obj1.png"",""img/obj6.png"",0],[0,""img/obj10.png"",""img/obj12.png""],[""img/obj11.png"",0,""img/obj5.png""]]","","","3,2,2,1,1,4,2,2,5","111","","","","","","","","","","",""
"vsl-grid-scene-snap","291","876384","0.0-5.0-10.0-4.0","","","[[""img/obj2.png"",""img/obj4.png"",""img/obj12.png""],[""img/obj3.png"",0,""img/obj5.png""],[0,""img/obj7.png"",0]]","","","3,1,2,1,1,3,1,2,6","77","","","","","","","","","","",""
"vsl-grid-scene-snap","292","879405","0.0-5.0-10.0-5.0","","","[[0,0,""img/obj12.png""],[0,""img/obj3.png"",""img/obj5.png""],[""img/obj1.png"",""img/obj6.png"",""img/obj7.png""]]","","","3,1,2,1,3,4,2,2,6","107","","","","","","","","","","",""
"vsl-grid-scene-snap","293","882424","0.0-5.0-10.0-6.0","","","[[0,""img/obj2.png"",""img/obj4.png""],[0,""img/obj10.png"",""img/obj12.png""],[""img/obj11.png"",0,""img/obj5.png""]]","","","3,2,2,2,1,3,2,2,5","121","","","","","","","","","","",""
"vsl-grid-scene-snap","294","885441","0.0-5.0-10.0-7.0","","","[[""img/obj12.png"",""img/obj1.png"",""img/obj6.png""],[""img/obj5.png"",0,""img/obj10.png""],[0,""img/obj11.png"",0]]","","","1,1,2,2,1,4,3,2,5","3","","","","","","","","","","",""
"vsl-grid-scene-snap","295","888457","0.0-5.0-10.0-8.0","","","[[0,0,""img/obj8.png""],[0,""img/obj3.png"",""img/obj9.png""],[""img/obj1.png"",""img/obj6.png"",""img/obj7.png""]]","","","3,1,1,1,3,4,2,2,6","106","","","","","","","","","","",""
"vsl-grid-scene-snap","296","891485","0.0-5.0-10.0-9.0","","","[[""img/obj1.png"",""img/obj6.png"",0],[""img/obj3.png"",0,""img/obj8.png""],[0,""img/obj7.png"",""img/obj9.png""]]","","","3,2,1,1,1,4,1,2,6","114","","","","","","","","","","",""
"vsl-grid-scene-snap","297","894507","0.0-5.0-10.0-10.0","","","[[0,0,""img/obj8.png""],[0,""img/obj10.png"",""img/obj9.png""],[""img/obj11.png"",""img/obj2.png"",""img/obj4.png""]]","","","3,1,1,2,3,3,2,2,5","84","","","","","","","","","","",""
"vsl-grid-scene-snap","298","897528","0.0-5.0-10.0-11.0","","","[[0,""img/obj2.png"",""img/obj4.png""],[""img/obj8.png"",""img/obj3.png"",0],[""img/obj9.png"",0,""img/obj7.png""]]","","","1,2,1,2,1,3,2,2,6","44","","","","","","","","","","",""
"vsl-grid-scene-snap","299","900542","0.0-5.0-10.0-12.0","","","[[0,""img/obj1.png"",""img/obj6.png""],[""img/obj3.png"",0,""img/obj12.png""],[0,""img/obj7.png"",""img/obj5.png""]]","","","3,2,2,2,1,4,1,2,6","127","","","","","","","","","","",""
"vsl-grid-scene-snap","300","903567","0.0-5.0-10.0-13.0","","","[[""img/obj12.png"",0,""img/obj10.png""],[""img/obj5.png"",""img/obj11.png"",0],[""img/obj1.png"",""img/obj6.png"",0]]","","","1,1,2,1,3,4,3,1,5","27","","","","","","","","","","",""
"vsl-grid-scene-snap","301","906579","0.0-5.0-10.0-14.0","","","[[""img/obj8.png"",0,""img/obj10.png""],[""img/obj9.png"",""img/obj11.png"",0],[0,""img/obj1.png"",""img/obj6.png""]]","","","1,1,1,2,3,4,3,1,5","14","","","","","","","","","","",""
"vsl-grid-scene-snap","302","909599","0.0-5.0-10.0-15.0","","","[[""img/obj2.png"",""img/obj4.png"",""img/obj12.png""],[0,""img/obj10.png"",""img/obj5.png""],[""img/obj11.png"",0,0]]","","","3,1,2,1,1,3,2,2,5","73","","","","","","","","","","",""
"vsl-grid-scene-snap","303","912607","0.0-5.0-10.0-16.0","","","[[""img/obj1.png"",""img/obj6.png"",""img/obj10.png""],[""img/obj12.png"",""img/obj11.png"",0],[""img/obj5.png"",0,0]]","","","1,2,2,1,1,4,3,1,5","67","","","","","","","","","","",""
"vsl-grid-scene-snap","304","915623","0.0-5.0-10.0-17.0","","","[[0,""img/obj3.png"",0],[""img/obj8.png"",0,""img/obj7.png""],[""img/obj9.png"",""img/obj1.png"",""img/obj6.png""]]","","","1,2,1,2,3,4,2,1,6","54","","","","","","","","","","",""
"vsl-grid-scene-snap","305","918651","0.0-5.0-10.0-18.0","","","[[""img/obj2.png"",""img/obj4.png"",""img/obj12.png""],[0,""img/obj3.png"",""img/obj5.png""],[0,0,""img/obj7.png""]]","","","3,1,2,1,1,3,2,2,6","81","","","","","","","","","","",""
"vsl-grid-scene-snap","306","921671","0.0-5.0-10.0-19.0","","","[[0,""img/obj2.png"",""img/obj4.png""],[""img/obj12.png"",0,""img/obj10.png""],[""img/obj5.png"",""img/obj11.png"",0]]","","","1,2,2,2,1,3,3,2,5","37","","","","","","","","","","",""
"vsl-grid-scene-snap","307","924692","0.0-5.0-10.0-20.0","","","[[0,""img/obj10.png"",""img/obj12.png""],[""img/obj11.png"",0,""img/obj5.png""],[0,""img/obj2.png"",""img/obj4.png""]]","","","3,1,2,2,3,3,2,1,5","89","","","","","","","","","","",""
"vsl-grid-scene-snap","308","927712","0.0-5.0-10.0-21.0","","","[[0,""img/obj1.png"",""img/obj6.png""],[""img/obj3.png"",0,""img/obj8.png""],[0,""img/obj7.png"",""img/obj9.png""]]","","","3,2,1,2,1,4,1,2,6","126","","","","","","","","","","",""
"vsl-grid-scene-snap","309","930731","0.0-5.0-10.0-22.0","","","[[""img/obj12.png"",0,""img/obj10.png""],[""img/obj5.png"",""img/obj11.png"",0],[0,""img/obj1.png"",""img/obj6.png""]]","","","1,1,2,2,3,4,3,1,5","15","","","","","","","","","","",""
"vsl-grid-scene-snap","310","933748","0.0-5.0-10.0-23.0","","","[[""img/obj3.png"",""img/obj1.png"",""img/obj6.png""],[""img/obj12.png"",""img/obj7.png"",0],[""img/obj5.png"",0,0]]","","","1,2,2,2,1,4,1,1,6","43","","","","","","","","","","",""
"vsl-grid-scene-snap","311","936761","0.0-5.0-10.0-24.0","","","[[0,""img/obj2.png"",""img/obj4.png""],[""img/obj12.png"",""img/obj3.png"",0],[""img/obj5.png"",0,""img/obj7.png""]]","","","1,2,2,2,1,3,2,2,6","45","","","","","","","","","","",""
"vsl-grid-scene-snap","312","939774","0.0-5.0-10.0-25.0","","","[[""img/obj12.png"",0,""img/obj10.png""],[""img/obj5.png"",""img/obj11.png"",0],[""img/obj2.png"",""img/obj4.png"",0]]","","","1,1,2,1,3,3,3,1,5","25","","","","","","","","","","",""
"vsl-grid-scene-snap","313","942791","0.0-5.0-10.0-26.0","","","[[""img/obj12.png"",""img/obj3.png"",0],[""img/obj5.png"",0,""img/obj7.png""],[""img/obj2.png"",""img/obj4.png"",0]]","","","1,1,2,1,3,3,2,1,6","29","","","","","","","","","","",""
"vsl-grid-scene-snap","314","945807","0.0-5.0-10.0-27.0","","","[[0,""img/obj2.png"",""img/obj4.png""],[""img/obj3.png"",0,""img/obj12.png""],[0,""img/obj7.png"",""img/obj5.png""]]","","","3,2,2,2,1,3,1,2,6","125","","","","","","","","","","",""
"vsl-grid-scene-snap","315","948836","0.0-5.0-10.0-28.0","","","[[""img/obj12.png"",0,""img/obj10.png""],[""img/obj5.png"",""img/obj11.png"",0],[0,""img/obj2.png"",""img/obj4.png""]]","","","1,1,2,2,3,3,3,1,5","13","","","","","","","","","","",""
"vsl-grid-scene-snap","316","951853","0.0-5.0-10.0-29.0","","","[[0,0,""img/obj10.png""],[0,""img/obj11.png"",""img/obj12.png""],[""img/obj1.png"",""img/obj6.png"",""img/obj5.png""]]","","","3,2,2,1,3,4,3,1,5","143","","","","","","","","","","",""
"vsl-grid-scene-snap","317","954877","0.0-5.0-10.0-30.0","","","[[0,""img/obj2.png"",""img/obj4.png""],[""img/obj3.png"",0,""img/obj8.png""],[0,""img/obj7.png"",""img/obj9.png""]]","","","3,2,1,2,1,3,1,2,6","124","","","","","","","","","","",""
"vsl-grid-scene-snap","318","957885","0.0-5.0-10.0-31.0","","","[[""img/obj3.png"",0,""img/obj8.png""],[0,""img/obj7.png"",""img/obj9.png""],[0,""img/obj2.png"",""img/obj4.png""]]","","","3,1,1,2,3,3,1,1,6","92","","","","","","","","","","",""
"vsl-grid-scene-snap","319","960902","0.0-5.0-10.0-32.0","","","[[""img/obj2.png"",""img/obj4.png"",0],[""img/obj3.png"",0,""img/obj12.png""],[0,""img/obj7.png"",""img/obj5.png""]]","","","3,2,2,1,1,3,1,2,6","113","","","","","","","","","","",""
"vsl-grid-scene-snap","320","963933","0.0-5.0-10.0-33.0","","","[[""img/obj1.png"",""img/obj6.png"",""img/obj10.png""],[""img/obj8.png"",""img/obj11.png"",0],[""img/obj9.png"",0,0]]","","","1,2,1,1,1,4,3,1,5","66","","","","","","","","","","",""
"vsl-grid-scene-snap","321","966960","0.0-5.0-10.0-34.0","","","[[""img/obj3.png"",""img/obj2.png"",""img/obj4.png""],[0,""img/obj7.png"",""img/obj12.png""],[0,0,""img/obj5.png""]]","","","3,2,2,2,1,3,1,1,6","129","","","","","","","","","","",""
"vsl-grid-scene-snap","322","969981","0.0-5.0-10.0-35.0","","","[[""img/obj1.png"",""img/obj6.png"",0],[""img/obj12.png"",""img/obj3.png"",0],[""img/obj5.png"",0,""img/obj7.png""]]","","","1,2,2,1,1,4,2,2,6","71","","","","","","","","","","",""
"vsl-grid-scene-snap","323","973007","0.0-5.0-10.0-36.0","","","[[""img/obj12.png"",0,0],[""img/obj5.png"",""img/obj10.png"",0],[""img/obj11.png"",""img/obj1.png"",""img/obj6.png""]]","","","1,1,2,2,3,4,2,2,5","19","","","","","","","","","","",""
"vsl-grid-scene-snap","324","976028","0.0-5.0-10.0-37.0","","","[[0,0,""img/obj10.png""],[""img/obj8.png"",""img/obj11.png"",0],[""img/obj9.png"",""img/obj2.png"",""img/obj4.png""]]","","","1,2,1,2,3,3,3,1,5","48","","","","","","","","","","",""
"vsl-grid-scene-snap","325","979051","0.0-5.0-10.0-38.0","","","[[""img/obj1.png"",""img/obj6.png"",0],[""img/obj12.png"",0,""img/obj10.png""],[""img/obj5.png"",""img/obj11.png"",0]]","","","1,2,2,1,1,4,3,2,5","63","","","","","","","","","","",""
"vsl-grid-scene-snap","326","982059","0.0-5.0-10.0-39.0","","","[[0,0,""img/obj10.png""],[""img/obj8.png"",""img/obj11.png"",0],[""img/obj9.png"",""img/obj1.png"",""img/obj6.png""]]","","","1,2,1,2,3,4,3,1,5","50","","","","","","","","","","",""
"vsl-grid-scene-snap","327","985080","0.0-5.0-10.0-40.0","","","[[""img/obj3.png"",""img/obj2.png"",""img/obj4.png""],[0,""img/obj7.png"",""img/obj8.png""],[0,0,""img/obj9.png""]]","","","3,2,1,2,1,3,1,1,6","128","","","","","","","","","","",""
"vsl-grid-scene-snap","328","988100","0.0-5.0-10.0-41.0","","","[[""img/obj2.png"",""img/obj4.png"",""img/obj10.png""],[""img/obj12.png"",""img/obj11.png"",0],[""img/obj5.png"",0,0]]","","","1,2,2,1,1,3,3,1,5","65","","","","","","","","","","",""
"vsl-grid-scene-snap","329","991113","0.0-5.0-10.0-42.0","","","[[""img/obj1.png"",""img/obj6.png"",""img/obj8.png""],[""img/obj3.png"",0,""img/obj9.png""],[0,""img/obj7.png"",0]]","","","3,1,1,1,1,4,1,2,6","78","","","","","","","","","","",""
"vsl-grid-scene-snap","330","994124","0.0-5.0-10.0-43.0","","","[[""img/obj12.png"",""img/obj1.png"",""img/obj6.png""],[""img/obj5.png"",""img/obj10.png"",0],[""img/obj11.png"",0,0]]","","","1,1,2,2,1,4,2,2,5","7","","","","","","","","","","",""
"vsl-grid-scene-snap","331","997134","0.0-5.0-10.0-44.0","","","[[""img/obj2.png"",""img/obj4.png"",""img/obj10.png""],[0,""img/obj11.png"",""img/obj12.png""],[0,0,""img/obj5.png""]]","","","3,2,2,1,1,3,3,1,5","117","","","","","","","","","","",""
"vsl-grid-scene-snap","332","1000154","0.0-5.0-10.0-45.0","","","[[""img/obj8.png"",""img/obj3.png"",0],[""img/obj9.png"",0,""img/obj7.png""],[0,""img/obj1.png"",""img/obj6.png""]]","","","1,1,1,2,3,4,2,1,6","22","","","","","","","","","","",""
"vsl-grid-scene-snap","333","1003174","0.0-5.0-10.0-46.0","","","[[0,""img/obj10.png"",0],[""img/obj11.png"",0,""img/obj12.png""],[""img/obj1.png"",""img/obj6.png"",""img/obj5.png""]]","","","3,2,2,1,3,4,2,1,5","135","","","","","","","","","","",""
"vsl-grid-scene-snap","334","1006192","0.0-5.0-10.0-47.0","","","[[0,""img/obj10.png"",""img/obj12.png""],[""img/obj11.png"",0,""img/obj5.png""],[0,""img/obj1.png"",""img/obj6.png""]]","","","3,1,2,2,3,4,2,1,5","91","","","","","","","","","","",""
"html-keyboard-response","335","1008220","0.0-6.0-0.0","","null","<p>Your practice session is now over.</p><p>The test session will start in 2 minutes.<p><p>You can use these two minutes to relaxe your eyes.</p><p> <br> </p><p>Seconds remaining:</p><p> <br> </p>120","","","","","null","","","","","","","","","",""
"html-keyboard-response","336","1009226","0.0-6.0-1.0","","null","<p>Your practice session is now over.</p><p>The test session will start in 2 minutes.<p><p>You can use these two minutes to relaxe your eyes.</p><p> <br> </p><p>Seconds remaining:</p><p> <br> </p>119","","","","","null","","","","","","","","","",""
"html-keyboard-response","337","1010232","0.0-6.0-2.0","","null","<p>Your practice session is now over.</p><p>The test session will start in 2 minutes.<p><p>You can use these two minutes to relaxe your eyes.</p><p> <br> </p><p>Seconds remaining:</p><p> <br> </p>118","","","","","null","","","","","","","","","",""
"html-keyboard-response","338","1011244","0.0-6.0-3.0","","null","<p>Your practice session is now over.</p><p>The test session will start in 2 minutes.<p><p>You can use these two minutes to relaxe your eyes.</p><p> <br> </p><p>Seconds remaining:</p><p> <br> </p>117","","","","","null","","","","","","","","","",""
"html-keyboard-response","339","1012257","0.0-6.0-4.0","","null","<p>Your practice session is now over.</p><p>The test session will start in 2 minutes.<p><p>You can use these two minutes to relaxe your eyes.</p><p> <br> </p><p>Seconds remaining:</p><p> <br> </p>116","","","","","null","","","","","","","","","",""
"html-keyboard-response","340","1013265","0.0-6.0-5.0","","null","<p>Your practice session is now over.</p><p>The test session will start in 2 minutes.<p><p>You can use these two minutes to relaxe your eyes.</p><p> <br> </p><p>Seconds remaining:</p><p> <br> </p>115","","","","","null","","","","","","","","","",""
"html-keyboard-response","341","1014281","0.0-6.0-6.0","","null","<p>Your practice session is now over.</p><p>The test session will start in 2 minutes.<p><p>You can use these two minutes to relaxe your eyes.</p><p> <br> </p><p>Seconds remaining:</p><p> <br> </p>114","","","","","null","","","","","","","","","",""
"html-keyboard-response","342","1015297","0.0-6.0-7.0","","null","<p>Your practice session is now over.</p><p>The test session will start in 2 minutes.<p><p>You can use these two minutes to relaxe your eyes.</p><p> <br> </p><p>Seconds remaining:</p><p> <br> </p>113","","","","","null","","","","","","","","","",""
"html-keyboard-response","343","1016314","0.0-6.0-8.0","","null","<p>Your practice session is now over.</p><p>The test session will start in 2 minutes.<p><p>You can use these two minutes to relaxe your eyes.</p><p> <br> </p><p>Seconds remaining:</p><p> <br> </p>112","","","","","null","","","","","","","","","",""
"html-keyboard-response","344","1017329","0.0-6.0-9.0","","null","<p>Your practice session is now over.</p><p>The test session will start in 2 minutes.<p><p>You can use these two minutes to relaxe your eyes.</p><p> <br> </p><p>Seconds remaining:</p><p> <br> </p>111","","","","","null","","","","","","","","","",""
"html-keyboard-response","345","1018335","0.0-6.0-10.0","","null","<p>Your practice session is now over.</p><p>The test session will start in 2 minutes.<p><p>You can use these two minutes to relaxe your eyes.</p><p> <br> </p><p>Seconds remaining:</p><p> <br> </p>110","","","","","null","","","","","","","","","",""
"html-keyboard-response","346","1019347","0.0-6.0-11.0","","null","<p>Your practice session is now over.</p><p>The test session will start in 2 minutes.<p><p>You can use these two minutes to relaxe your eyes.</p><p> <br> </p><p>Seconds remaining:</p><p> <br> </p>109","","","","","null","","","","","","","","","",""
"html-keyboard-response","347","1020351","0.0-6.0-12.0","","null","<p>Your practice session is now over.</p><p>The test session will start in 2 minutes.<p><p>You can use these two minutes to relaxe your eyes.</p><p> <br> </p><p>Seconds remaining:</p><p> <br> </p>108","","","","","null","","","","","","","","","",""
"html-keyboard-response","348","1021362","0.0-6.0-13.0","","null","<p>Your practice session is now over.</p><p>The test session will start in 2 minutes.<p><p>You can use these two minutes to relaxe your eyes.</p><p> <br> </p><p>Seconds remaining:</p><p> <br> </p>107","","","","","null","","","","","","","","","",""
"html-keyboard-response","349","1022378","0.0-6.0-14.0","","null","<p>Your practice session is now over.</p><p>The test session will start in 2 minutes.<p><p>You can use these two minutes to relaxe your eyes.</p><p> <br> </p><p>Seconds remaining:</p><p> <br> </p>106","","","","","null","","","","","","","","","",""
"html-keyboard-response","350","1023394","0.0-6.0-15.0","","null","<p>Your practice session is now over.</p><p>The test session will start in 2 minutes.<p><p>You can use these two minutes to relaxe your eyes.</p><p> <br> </p><p>Seconds remaining:</p><p> <br> </p>105","","","","","null","","","","","","","","","",""
"html-keyboard-response","351","1024410","0.0-6.0-16.0","","null","<p>Your practice session is now over.</p><p>The test session will start in 2 minutes.<p><p>You can use these two minutes to relaxe your eyes.</p><p> <br> </p><p>Seconds remaining:</p><p> <br> </p>104","","","","","null","","","","","","","","","",""
"html-keyboard-response","352","1025428","0.0-6.0-17.0","","null","<p>Your practice session is now over.</p><p>The test session will start in 2 minutes.<p><p>You can use these two minutes to relaxe your eyes.</p><p> <br> </p><p>Seconds remaining:</p><p> <br> </p>103","","","","","null","","","","","","","","","",""
"html-keyboard-response","353","1026435","0.0-6.0-18.0","","null","<p>Your practice session is now over.</p><p>The test session will start in 2 minutes.<p><p>You can use these two minutes to relaxe your eyes.</p><p> <br> </p><p>Seconds remaining:</p><p> <br> </p>102","","","","","null","","","","","","","","","",""
"html-keyboard-response","354","1027452","0.0-6.0-19.0","","null","<p>Your practice session is now over.</p><p>The test session will start in 2 minutes.<p><p>You can use these two minutes to relaxe your eyes.</p><p> <br> </p><p>Seconds remaining:</p><p> <br> </p>101","","","","","null","","","","","","","","","",""
"html-keyboard-response","355","1028460","0.0-6.0-20.0","","null","<p>Your practice session is now over.</p><p>The test session will start in 2 minutes.<p><p>You can use these two minutes to relaxe your eyes.</p><p> <br> </p><p>Seconds remaining:</p><p> <br> </p>100","","","","","null","","","","","","","","","",""
"html-keyboard-response","356","1029462","0.0-6.0-21.0","","null","<p>Your practice session is now over.</p><p>The test session will start in 2 minutes.<p><p>You can use these two minutes to relaxe your eyes.</p><p> <br> </p><p>Seconds remaining:</p><p> <br> </p>99","","","","","null","","","","","","","","","",""
"html-keyboard-response","357","1030476","0.0-6.0-22.0","","null","<p>Your practice session is now over.</p><p>The test session will start in 2 minutes.<p><p>You can use these two minutes to relaxe your eyes.</p><p> <br> </p><p>Seconds remaining:</p><p> <br> </p>98","","","","","null","","","","","","","","","",""
"html-keyboard-response","358","1031492","0.0-6.0-23.0","","null","<p>Your practice session is now over.</p><p>The test session will start in 2 minutes.<p><p>You can use these two minutes to relaxe your eyes.</p><p> <br> </p><p>Seconds remaining:</p><p> <br> </p>97","","","","","null","","","","","","","","","",""
"html-keyboard-response","359","1032508","0.0-6.0-24.0","","null","<p>Your practice session is now over.</p><p>The test session will start in 2 minutes.<p><p>You can use these two minutes to relaxe your eyes.</p><p> <br> </p><p>Seconds remaining:</p><p> <br> </p>96","","","","","null","","","","","","","","","",""
"html-keyboard-response","360","1033525","0.0-6.0-25.0","","null","<p>Your practice session is now over.</p><p>The test session will start in 2 minutes.<p><p>You can use these two minutes to relaxe your eyes.</p><p> <br> </p><p>Seconds remaining:</p><p> <br> </p>95","","","","","null","","","","","","","","","",""
"html-keyboard-response","361","1034541","0.0-6.0-26.0","","null","<p>Your practice session is now over.</p><p>The test session will start in 2 minutes.<p><p>You can use these two minutes to relaxe your eyes.</p><p> <br> </p><p>Seconds remaining:</p><p> <br> </p>94","","","","","null","","","","","","","","","",""
"html-keyboard-response","362","1035557","0.0-6.0-27.0","","null","<p>Your practice session is now over.</p><p>The test session will start in 2 minutes.<p><p>You can use these two minutes to relaxe your eyes.</p><p> <br> </p><p>Seconds remaining:</p><p> <br> </p>93","","","","","null","","","","","","","","","",""
"html-keyboard-response","363","1036574","0.0-6.0-28.0","","null","<p>Your practice session is now over.</p><p>The test session will start in 2 minutes.<p><p>You can use these two minutes to relaxe your eyes.</p><p> <br> </p><p>Seconds remaining:</p><p> <br> </p>92","","","","","null","","","","","","","","","",""
"html-keyboard-response","364","1037590","0.0-6.0-29.0","","null","<p>Your practice session is now over.</p><p>The test session will start in 2 minutes.<p><p>You can use these two minutes to relaxe your eyes.</p><p> <br> </p><p>Seconds remaining:</p><p> <br> </p>91","","","","","null","","","","","","","","","",""
"html-keyboard-response","365","1038606","0.0-6.0-30.0","","null","<p>Your practice session is now over.</p><p>The test session will start in 2 minutes.<p><p>You can use these two minutes to relaxe your eyes.</p><p> <br> </p><p>Seconds remaining:</p><p> <br> </p>90","","","","","null","","","","","","","","","",""
"html-keyboard-response","366","1039623","0.0-6.0-31.0","","null","<p>Your practice session is now over.</p><p>The test session will start in 2 minutes.<p><p>You can use these two minutes to relaxe your eyes.</p><p> <br> </p><p>Seconds remaining:</p><p> <br> </p>89","","","","","null","","","","","","","","","",""
"html-keyboard-response","367","1040632","0.0-6.0-32.0","","null","<p>Your practice session is now over.</p><p>The test session will start in 2 minutes.<p><p>You can use these two minutes to relaxe your eyes.</p><p> <br> </p><p>Seconds remaining:</p><p> <br> </p>88","","","","","null","","","","","","","","","",""
"html-keyboard-response","368","1041648","0.0-6.0-33.0","","null","<p>Your practice session is now over.</p><p>The test session will start in 2 minutes.<p><p>You can use these two minutes to relaxe your eyes.</p><p> <br> </p><p>Seconds remaining:</p><p> <br> </p>87","","","","","null","","","","","","","","","",""
"html-keyboard-response","369","1042656","0.0-6.0-34.0","","null","<p>Your practice session is now over.</p><p>The test session will start in 2 minutes.<p><p>You can use these two minutes to relaxe your eyes.</p><p> <br> </p><p>Seconds remaining:</p><p> <br> </p>86","","","","","null","","","","","","","","","",""
"html-keyboard-response","370","1043671","0.0-6.0-35.0","","null","<p>Your practice session is now over.</p><p>The test session will start in 2 minutes.<p><p>You can use these two minutes to relaxe your eyes.</p><p> <br> </p><p>Seconds remaining:</p><p> <br> </p>85","","","","","null","","","","","","","","","",""
"html-keyboard-response","371","1044687","0.0-6.0-36.0","","null","<p>Your practice session is now over.</p><p>The test session will start in 2 minutes.<p><p>You can use these two minutes to relaxe your eyes.</p><p> <br> </p><p>Seconds remaining:</p><p> <br> </p>84","","","","","null","","","","","","","","","",""
"html-keyboard-response","372","1045704","0.0-6.0-37.0","","null","<p>Your practice session is now over.</p><p>The test session will start in 2 minutes.<p><p>You can use these two minutes to relaxe your eyes.</p><p> <br> </p><p>Seconds remaining:</p><p> <br> </p>83","","","","","null","","","","","","","","","",""
"html-keyboard-response","373","1046720","0.0-6.0-38.0","","null","<p>Your practice session is now over.</p><p>The test session will start in 2 minutes.<p><p>You can use these two minutes to relaxe your eyes.</p><p> <br> </p><p>Seconds remaining:</p><p> <br> </p>82","","","","","null","","","","","","","","","",""
"html-keyboard-response","374","1047736","0.0-6.0-39.0","","null","<p>Your practice session is now over.</p><p>The test session will start in 2 minutes.<p><p>You can use these two minutes to relaxe your eyes.</p><p> <br> </p><p>Seconds remaining:</p><p> <br> </p>81","","","","","null","","","","","","","","","",""
"html-keyboard-response","375","1048752","0.0-6.0-40.0","","null","<p>Your practice session is now over.</p><p>The test session will start in 2 minutes.<p><p>You can use these two minutes to relaxe your eyes.</p><p> <br> </p><p>Seconds remaining:</p><p> <br> </p>80","","","","","null","","","","","","","","","",""
"html-keyboard-response","376","1049769","0.0-6.0-41.0","","null","<p>Your practice session is now over.</p><p>The test session will start in 2 minutes.<p><p>You can use these two minutes to relaxe your eyes.</p><p> <br> </p><p>Seconds remaining:</p><p> <br> </p>79","","","","","null","","","","","","","","","",""
"html-keyboard-response","377","1050785","0.0-6.0-42.0","","null","<p>Your practice session is now over.</p><p>The test session will start in 2 minutes.<p><p>You can use these two minutes to relaxe your eyes.</p><p> <br> </p><p>Seconds remaining:</p><p> <br> </p>78","","","","","null","","","","","","","","","",""
"html-keyboard-response","378","1051801","0.0-6.0-43.0","","null","<p>Your practice session is now over.</p><p>The test session will start in 2 minutes.<p><p>You can use these two minutes to relaxe your eyes.</p><p> <br> </p><p>Seconds remaining:</p><p> <br> </p>77","","","","","null","","","","","","","","","",""
"html-keyboard-response","379","1052818","0.0-6.0-44.0","","null","<p>Your practice session is now over.</p><p>The test session will start in 2 minutes.<p><p>You can use these two minutes to relaxe your eyes.</p><p> <br> </p><p>Seconds remaining:</p><p> <br> </p>76","","","","","null","","","","","","","","","",""
"html-keyboard-response","380","1053835","0.0-6.0-45.0","","null","<p>Your practice session is now over.</p><p>The test session will start in 2 minutes.<p><p>You can use these two minutes to relaxe your eyes.</p><p> <br> </p><p>Seconds remaining:</p><p> <br> </p>75","","","","","null","","","","","","","","","",""
"html-keyboard-response","381","1054851","0.0-6.0-46.0","","null","<p>Your practice session is now over.</p><p>The test session will start in 2 minutes.<p><p>You can use these two minutes to relaxe your eyes.</p><p> <br> </p><p>Seconds remaining:</p><p> <br> </p>74","","","","","null","","","","","","","","","",""
"html-keyboard-response","382","1055855","0.0-6.0-47.0","","null","<p>Your practice session is now over.</p><p>The test session will start in 2 minutes.<p><p>You can use these two minutes to relaxe your eyes.</p><p> <br> </p><p>Seconds remaining:</p><p> <br> </p>73","","","","","null","","","","","","","","","",""
"html-keyboard-response","383","1056859","0.0-6.0-48.0","","null","<p>Your practice session is now over.</p><p>The test session will start in 2 minutes.<p><p>You can use these two minutes to relaxe your eyes.</p><p> <br> </p><p>Seconds remaining:</p><p> <br> </p>72","","","","","null","","","","","","","","","",""
"html-keyboard-response","384","1057867","0.0-6.0-49.0","","null","<p>Your practice session is now over.</p><p>The test session will start in 2 minutes.<p><p>You can use these two minutes to relaxe your eyes.</p><p> <br> </p><p>Seconds remaining:</p><p> <br> </p>71","","","","","null","","","","","","","","","",""
"html-keyboard-response","385","1058882","0.0-6.0-50.0","","null","<p>Your practice session is now over.</p><p>The test session will start in 2 minutes.<p><p>You can use these two minutes to relaxe your eyes.</p><p> <br> </p><p>Seconds remaining:</p><p> <br> </p>70","","","","","null","","","","","","","","","",""
