"trial_type","trial_index","time_elapsed","internal_node_id","success","rt","stimulus","button_pressed","responses","training_vector","training_matrixRow","key_press","test_part","correct_response","test_number","test_vector","correct","image_switchboard","scene_order","participant","study","session"
"pavlovia","0","4","0.0-0.0","","","","","","","","","","","","","","","","","",""
"fullscreen","1","1981","0.0-1.0","true","","","","","","","","","","","","","","","","",""
"html-button-response","2","3480","0.0-2.0","","1495.2000000178814","<p style=""text-align: justify;margin-left: 15%; margin-right:15%"">You are participating in an experiment at the Vision Lab of the Department of Cognitive Science, Central European University.  One of our main questions is what kind of representations we can create about our visual environment and how these representations influence our behavior. At our lab we use multiple methods, for example behavioral experiments and computational models. In this experiment you will observe scenes consisting of abstract shapes and answer simple questions about them. <br><br>At the beginning and throughout the experiment you will receive precise information about what to do. The experiment takes about 25 minutes in total. <br><br>The test is voluntary, and you can withdraw your participation at any time. We treat your personal information confidentially. <br>Only those people who work on this research project have access to your data. We will work with group level statistics. We will only report the results of the group in scientific publications and conferences. This research was approved by the Hungarian Psychological Research Ethics Committee.<br><br>If you have any further questions about the study, you can contact the experimenter, Beata Tunde Szabo, PhD Student. Contact: 1051 Nador u. 11. E-mail: szabo_beata-tunde@phd.ceu.edu <br><br>By pressing the button below you indicate that you read this information, found it sufficent, and you consent to participate in the experiment. <br><br> </p>","0","","","","","","","","","","","","","",""
"survey-html-form","3","5629","0.0-3.0","","2147","","","{""Age"":""2"",""gender"":""Female"",""gender_other"":""""}","","","","","","","","","","","","",""
"html-button-response","4","6382","0.0-4.0","","751.8000000119209","<p style=""text-align: justify;margin-left: 15%; margin-right:15%""> This is your practice session. You will see a checkerboard with random simple shapes appearing in different positions in the checkerboard. Your task is simply to observe the patterns so that you would be able to answer some questions about the sequence after the practice session.  The session will last for about 15 minutes.  Please, pay attention to EACH display! <br><br>Occasionally, there will be an attention check asking you to press the spacebar. ","0","","","","","","","","","","","","","",""
"vsl-grid-scene-snap","5","8384","0.0-5.0-0.0-0.0","","","[[""img/obj7.png"",0,""img/obj1.png""],[""img/obj10.png"",""img/obj4.png"",0],[0,""img/obj5.png"",""img/obj3.png""]]","","","1,1,2,2,3,3,3,1,5","13","","","","","","","","","","",""
"vsl-grid-scene-snap","6","11387","0.0-5.0-0.0-1.0","","","[[""img/obj12.png"",0,0],[""img/obj7.png"",""img/obj2.png"",0],[""img/obj10.png"",""img/obj6.png"",""img/obj9.png""]]","","","1,2,2,2,3,4,1,1,6","59","","","","","","","","","","",""
"vsl-grid-scene-snap","7","14394","0.0-5.0-0.0-2.0","","","[[""img/obj11.png"",""img/obj12.png"",0],[""img/obj8.png"",0,""img/obj2.png""],[0,""img/obj5.png"",""img/obj3.png""]]","","","1,1,1,2,3,3,2,1,6","20","","","","","","","","","","",""
"vsl-grid-scene-snap","8","17400","0.0-5.0-0.0-3.0","","","[[0,0,""img/obj1.png""],[""img/obj11.png"",""img/obj4.png"",0],[""img/obj8.png"",""img/obj6.png"",""img/obj9.png""]]","","","1,2,1,2,3,4,3,1,5","50","","","","","","","","","","",""
"vsl-grid-scene-snap","9","20403","0.0-5.0-0.0-4.0","","","[[""img/obj12.png"",0,""img/obj11.png""],[0,""img/obj2.png"",""img/obj8.png""],[""img/obj6.png"",""img/obj9.png"",0]]","","","3,1,1,1,3,4,1,1,6","102","","","","","","","","","","",""
"vsl-grid-scene-snap","10","23419","0.0-5.0-0.0-5.0","","","[[""img/obj11.png"",0,0],[""img/obj8.png"",""img/obj12.png"",0],[""img/obj5.png"",""img/obj3.png"",""img/obj2.png""]]","","","1,1,1,1,3,3,2,2,6","32","","","","","","","","","","",""
"vsl-grid-scene-snap","11","26437","0.0-5.0-0.0-6.0","","","[[0,""img/obj5.png"",""img/obj3.png""],[""img/obj7.png"",0,""img/obj1.png""],[""img/obj10.png"",""img/obj4.png"",0]]","","","1,2,2,2,1,3,3,2,5","37","","","","","","","","","","",""
"vsl-grid-scene-snap","12","29462","0.0-5.0-0.0-7.0","","","[[""img/obj11.png"",0,0],[""img/obj8.png"",""img/obj1.png"",0],[""img/obj4.png"",""img/obj6.png"",""img/obj9.png""]]","","","1,1,1,2,3,4,2,2,5","18","","","","","","","","","","",""
"vsl-grid-scene-snap","13","32476","0.0-5.0-0.0-8.0","","","[[0,""img/obj1.png"",""img/obj11.png""],[""img/obj4.png"",0,""img/obj8.png""],[0,""img/obj6.png"",""img/obj9.png""]]","","","3,1,1,2,3,4,2,1,5","90","","","","","","","","","","",""
"vsl-grid-scene-snap","14","35490","0.0-5.0-0.0-9.0","","","[[""img/obj6.png"",""img/obj9.png"",0],[""img/obj7.png"",""img/obj12.png"",0],[""img/obj10.png"",0,""img/obj2.png""]]","","","1,2,2,1,1,4,2,2,6","71","","","","","","","","","","",""
"vsl-grid-scene-snap","15","38506","0.0-5.0-0.0-10.0","","","[[0,""img/obj6.png"",""img/obj9.png""],[""img/obj7.png"",0,""img/obj1.png""],[""img/obj10.png"",""img/obj4.png"",0]]","","","1,2,2,2,1,4,3,2,5","39","","","","","","","","","","",""
"vsl-grid-scene-snap","16","41519","0.0-5.0-0.0-11.0","","","[[""img/obj12.png"",""img/obj5.png"",""img/obj3.png""],[0,""img/obj2.png"",""img/obj11.png""],[0,0,""img/obj8.png""]]","","","3,2,1,2,1,3,1,1,6","128","","","","","","","","","","",""
"vsl-grid-scene-snap","17","44540","0.0-5.0-0.0-12.0","","","[[""img/obj12.png"",0,""img/obj7.png""],[0,""img/obj2.png"",""img/obj10.png""],[""img/obj5.png"",""img/obj3.png"",0]]","","","3,1,2,1,3,3,1,1,6","101","","","","","","","","","","",""
"vsl-grid-scene-snap","18","47546","0.0-5.0-0.0-13.0","","","[[""img/obj12.png"",0,""img/obj7.png""],[0,""img/obj2.png"",""img/obj10.png""],[0,""img/obj6.png"",""img/obj9.png""]]","","","3,1,2,2,3,4,1,1,6","95","","","","","","","","","","",""
"vsl-grid-scene-snap","19","50563","0.0-5.0-0.0-14.0","","","[[""img/obj6.png"",""img/obj9.png"",0],[""img/obj12.png"",0,""img/obj11.png""],[0,""img/obj2.png"",""img/obj8.png""]]","","","3,2,1,1,1,4,1,2,6","114","","","","","","","","","","",""
"vsl-grid-scene-snap","20","53568","0.0-5.0-0.0-15.0","","","[[""img/obj7.png"",0,0],[""img/obj10.png"",""img/obj12.png"",0],[""img/obj5.png"",""img/obj3.png"",""img/obj2.png""]]","","","1,1,2,1,3,3,2,2,6","33","","","","","","","","","","",""
"vsl-grid-scene-snap","21","56590","0.0-5.0-0.0-16.0","","","[[""img/obj12.png"",""img/obj6.png"",""img/obj9.png""],[""img/obj11.png"",""img/obj2.png"",0],[""img/obj8.png"",0,0]]","","","1,2,1,2,1,4,1,1,6","42","","","","","","","","","","",""
"vsl-grid-scene-snap","22","59608","0.0-5.0-0.0-17.0","","","[[""img/obj6.png"",""img/obj9.png"",0],[""img/obj12.png"",0,""img/obj7.png""],[0,""img/obj2.png"",""img/obj10.png""]]","","","3,2,2,1,1,4,1,2,6","115","","","","","","","","","","",""
"vsl-grid-scene-snap","23","62627","0.0-5.0-0.0-18.0","","","[[""img/obj12.png"",""img/obj5.png"",""img/obj3.png""],[""img/obj7.png"",""img/obj2.png"",0],[""img/obj10.png"",0,0]]","","","1,2,2,2,1,3,1,1,6","41","","","","","","","","","","",""
"vsl-grid-scene-snap","24","65642","0.0-5.0-0.0-19.0","","","[[""img/obj5.png"",""img/obj3.png"",0],[0,""img/obj1.png"",""img/obj11.png""],[""img/obj4.png"",0,""img/obj8.png""]]","","","3,2,1,1,1,3,2,2,5","108","","","","","","","","","","",""
"vsl-grid-scene-snap","25","68665","0.0-5.0-0.0-20.0","","","[[0,""img/obj12.png"",0],[""img/obj11.png"",0,""img/obj2.png""],[""img/obj8.png"",""img/obj5.png"",""img/obj3.png""]]","","","1,2,1,2,3,3,2,1,6","52","","","","","","","","","","",""
"vsl-grid-scene-snap","26","71680","0.0-5.0-0.0-21.0","","","[[""img/obj5.png"",""img/obj3.png"",""img/obj7.png""],[0,""img/obj12.png"",""img/obj10.png""],[0,0,""img/obj2.png""]]","","","3,1,2,1,1,3,2,2,6","81","","","","","","","","","","",""
"vsl-grid-scene-snap","27","74689","0.0-5.0-0.0-22.0","","","[[""img/obj6.png"",""img/obj9.png"",0],[""img/obj7.png"",0,""img/obj1.png""],[""img/obj10.png"",""img/obj4.png"",0]]","","","1,2,2,1,1,4,3,2,5","63","","","","","","","","","","",""
"vsl-grid-scene-snap","28","77705","0.0-5.0-0.0-23.0","","","[[""img/obj5.png"",""img/obj3.png"",0],[""img/obj12.png"",0,""img/obj11.png""],[0,""img/obj2.png"",""img/obj8.png""]]","","","3,2,1,1,1,3,1,2,6","112","","","","","","","","","","",""
"vsl-grid-scene-snap","29","80714","0.0-5.0-0.0-24.0","","","[[0,""img/obj1.png"",""img/obj11.png""],[""img/obj4.png"",0,""img/obj8.png""],[""img/obj5.png"",""img/obj3.png"",0]]","","","3,1,1,1,3,3,2,1,5","96","","","","","","","","","","",""
"vsl-grid-scene-snap","30","83728","0.0-5.0-0.0-25.0","","","[[0,""img/obj1.png"",0],[""img/obj4.png"",0,""img/obj11.png""],[""img/obj5.png"",""img/obj3.png"",""img/obj8.png""]]","","","3,2,1,1,3,3,2,1,5","132","","","","","","","","","","",""
"vsl-grid-scene-snap","31","86743","0.0-5.0-0.0-26.0","","","[[""img/obj7.png"",""img/obj5.png"",""img/obj3.png""],[""img/obj10.png"",""img/obj1.png"",0],[""img/obj4.png"",0,0]]","","","1,1,2,2,1,3,2,2,5","5","","","","","","","","","","",""
"vsl-grid-scene-snap","32","89765","0.0-5.0-0.0-27.0","","","[[""img/obj7.png"",0,""img/obj1.png""],[""img/obj10.png"",""img/obj4.png"",0],[""img/obj6.png"",""img/obj9.png"",0]]","","","1,1,2,1,3,4,3,1,5","27","","","","","","","","","","",""
"vsl-grid-scene-snap","33","92781","0.0-5.0-0.0-28.0","","","[[0,""img/obj6.png"",""img/obj9.png""],[""img/obj11.png"",""img/obj12.png"",0],[""img/obj8.png"",0,""img/obj2.png""]]","","","1,2,1,2,1,4,2,2,6","46","","","","","","","","","","",""
"vsl-grid-scene-snap","34","95796","0.0-5.0-0.0-29.0","","","[[0,0,""img/obj1.png""],[0,""img/obj4.png"",""img/obj7.png""],[""img/obj5.png"",""img/obj3.png"",""img/obj10.png""]]","","","3,2,2,1,3,3,3,1,5","141","","","","","","","","","","",""
"vsl-grid-scene-snap","35","98803","0.0-5.0-0.0-30.0","","","[[""img/obj5.png"",""img/obj3.png"",0],[""img/obj11.png"",""img/obj12.png"",0],[""img/obj8.png"",0,""img/obj2.png""]]","","","1,2,1,1,1,3,2,2,6","68","","","","","","","","","","",""
"vsl-grid-scene-snap","36","101812","0.0-5.0-0.0-31.0","","","[[0,0,""img/obj1.png""],[0,""img/obj4.png"",""img/obj11.png""],[""img/obj6.png"",""img/obj9.png"",""img/obj8.png""]]","","","3,2,1,1,3,4,3,1,5","142","","","","","","","","","","",""
"vsl-grid-scene-snap","37","104836","0.0-5.0-0.0-32.0","","","[[0,""img/obj1.png"",""img/obj7.png""],[""img/obj4.png"",0,""img/obj10.png""],[""img/obj6.png"",""img/obj9.png"",0]]","","","3,1,2,1,3,4,2,1,5","99","","","","","","","","","","",""
"vsl-grid-scene-snap","38","107849","0.0-5.0-0.0-33.0","","","[[0,""img/obj5.png"",""img/obj3.png""],[""img/obj12.png"",0,""img/obj7.png""],[0,""img/obj2.png"",""img/obj10.png""]]","","","3,2,2,2,1,3,1,2,6","125","","","","","","","","","","",""
"vsl-grid-scene-snap","39","110866","0.0-5.0-0.0-34.0","","","[[0,""img/obj1.png"",""img/obj7.png""],[""img/obj4.png"",0,""img/obj10.png""],[0,""img/obj5.png"",""img/obj3.png""]]","","","3,1,2,2,3,3,2,1,5","89","","","","","","","","","","",""
"vsl-grid-scene-snap","40","113890","0.0-5.0-0.0-35.0","","","[[0,""img/obj5.png"",""img/obj3.png""],[""img/obj11.png"",0,""img/obj1.png""],[""img/obj8.png"",""img/obj4.png"",0]]","","","1,2,1,2,1,3,3,2,5","36","","","","","","","","","","",""
"vsl-grid-scene-snap","41","116899","0.0-5.0-0.0-36.0","","","[[0,0,""img/obj1.png""],[""img/obj7.png"",""img/obj4.png"",0],[""img/obj10.png"",""img/obj5.png"",""img/obj3.png""]]","","","1,2,2,2,3,3,3,1,5","49","","","","","","","","","","",""
"vsl-grid-scene-snap","42","119917","0.0-5.0-0.0-37.0","","","[[""img/obj11.png"",""img/obj12.png"",0],[""img/obj8.png"",0,""img/obj2.png""],[""img/obj5.png"",""img/obj3.png"",0]]","","","1,1,1,1,3,3,2,1,6","28","","","","","","","","","","",""
"vsl-grid-scene-snap","43","122933","0.0-5.0-0.0-38.0","","","[[""img/obj12.png"",""img/obj5.png"",""img/obj3.png""],[""img/obj11.png"",""img/obj2.png"",0],[""img/obj8.png"",0,0]]","","","1,2,1,2,1,3,1,1,6","40","","","","","","","","","","",""
"vsl-grid-scene-snap","44","125940","0.0-5.0-0.0-39.0","","","[[""img/obj11.png"",""img/obj6.png"",""img/obj9.png""],[""img/obj8.png"",""img/obj12.png"",0],[0,0,""img/obj2.png""]]","","","1,1,1,2,1,4,2,2,6","10","","","","","","","","","","",""
"vsl-grid-scene-snap","45","128962","0.0-5.0-0.0-40.0","","","[[""img/obj7.png"",""img/obj12.png"",0],[""img/obj10.png"",0,""img/obj2.png""],[""img/obj6.png"",""img/obj9.png"",0]]","","","1,1,2,1,3,4,2,1,6","31","","","","","","","","","","",""
"vsl-grid-scene-snap","46","131974","0.0-5.0-0.0-41.0","","","[[""img/obj12.png"",0,0],[0,""img/obj2.png"",""img/obj7.png""],[""img/obj6.png"",""img/obj9.png"",""img/obj10.png""]]","","","3,2,2,1,3,4,1,1,6","139","","","","","","","","","","",""
"vsl-grid-scene-snap","47","134989","0.0-5.0-0.0-42.0","","","[[""img/obj5.png"",""img/obj3.png"",0],[""img/obj12.png"",0,""img/obj7.png""],[0,""img/obj2.png"",""img/obj10.png""]]","","","3,2,2,1,1,3,1,2,6","113","","","","","","","","","","",""
"vsl-grid-scene-snap","48","138003","0.0-5.0-0.0-43.0","","","[[0,0,""img/obj11.png""],[0,""img/obj12.png"",""img/obj8.png""],[""img/obj5.png"",""img/obj3.png"",""img/obj2.png""]]","","","3,1,1,1,3,3,2,2,6","104","","","","","","","","","","",""
"vsl-grid-scene-snap","49","141026","0.0-5.0-0.0-44.0","","","[[0,""img/obj6.png"",""img/obj9.png""],[0,""img/obj1.png"",""img/obj11.png""],[""img/obj4.png"",0,""img/obj8.png""]]","","","3,2,1,2,1,4,2,2,5","122","","","","","","","","","","",""
"vsl-grid-scene-snap","50","144043","0.0-5.0-0.0-45.0","","","[[""img/obj12.png"",""img/obj6.png"",""img/obj9.png""],[0,""img/obj2.png"",""img/obj11.png""],[0,0,""img/obj8.png""]]","","","3,2,1,2,1,4,1,1,6","130","","","","","","","","","","",""
"vsl-grid-scene-snap","51","147056","0.0-5.0-0.0-46.0","","","[[0,0,""img/obj11.png""],[0,""img/obj1.png"",""img/obj8.png""],[""img/obj4.png"",""img/obj6.png"",""img/obj9.png""]]","","","3,1,1,2,3,4,2,2,5","86","","","","","","","","","","",""
"vsl-grid-scene-snap","52","150079","0.0-5.0-0.0-47.0","","","[[0,0,""img/obj7.png""],[0,""img/obj1.png"",""img/obj10.png""],[""img/obj4.png"",""img/obj6.png"",""img/obj9.png""]]","","","3,1,2,2,3,4,2,2,5","87","","","","","","","","","","",""
"vsl-grid-attention-check","53","154090","0.0-5.0-1.0-0.0-0.0","","null","[[""img/square.png"",""img/square.png"",""img/square.png""],[0,""img/attention.png"",0],[""img/square.png"",0,""img/square.png""]]","","","","","null","","","","","","","","","",""
"vsl-grid-attention-check","54","157093","0.0-5.0-1.0-0.1-0.1","","null","[[0,0,""img/square.png""],[""img/square.png"",""img/attention.png"",""img/square.png""],[0,""img/square.png"",""img/square.png""]]","","","","","null","","","","","","","","","",""
"vsl-grid-attention-check","55","160127","0.0-5.0-1.0-0.2-0.2","","null","[[""img/square.png"",""img/square.png"",""img/square.png""],[0,""img/attention.png"",0],[""img/square.png"",""img/square.png"",0]]","","","","","null","","","","","","","","","",""
"vsl-grid-attention-check","56","163139","0.0-5.0-1.0-0.3-0.3","","null","[[""img/square.png"",""img/square.png"",0],[""img/square.png"",""img/attention.png"",""img/square.png""],[0,0,""img/square.png""]]","","","","","null","","","","","","","","","",""
"vsl-grid-attention-check","57","166144","0.0-5.0-1.0-0.4-0.4","","null","[[0,""img/square.png"",""img/square.png""],[0,""img/attention.png"",""img/square.png""],[""img/square.png"",0,""img/square.png""]]","","","","","null","","","","","","","","","",""
"vsl-grid-attention-check","58","169151","0.0-5.0-1.0-0.5-0.5","","null","[[0,""img/square.png"",0],[""img/square.png"",""img/attention.png"",0],[""img/square.png"",""img/square.png"",""img/square.png""]]","","","","","null","","","","","","","","","",""
"vsl-grid-attention-check","59","172154","0.0-5.0-1.0-0.6-0.6","","null","[[""img/square.png"",0,0],[""img/square.png"",""img/attention.png"",0],[""img/square.png"",""img/square.png"",""img/square.png""]]","","","","","null","","","","","","","","","",""
"vsl-grid-attention-check","60","175170","0.0-5.0-1.0-0.7-0.7","","null","[[""img/square.png"",""img/square.png"",""img/square.png""],[""img/square.png"",""img/attention.png"",0],[""img/square.png"",0,0]]","","","","","null","","","","","","","","","",""
"vsl-grid-attention-check","61","178173","0.0-5.0-1.0-0.8-0.8","","null","[[""img/square.png"",""img/square.png"",""img/square.png""],[0,""img/attention.png"",0],[0,""img/square.png"",""img/square.png""]]","","","","","null","","","","","","","","","",""
"vsl-grid-attention-check","62","181186","0.0-5.0-1.0-0.9-0.9","","null","[[""img/square.png"",0,""img/square.png""],[0,""img/attention.png"",""img/square.png""],[""img/square.png"",0,""img/square.png""]]","","","","","null","","","","","","","","","",""
"vsl-grid-attention-check","63","184201","0.0-5.0-1.0-0.10-0.10","","null","[[""img/square.png"",""img/square.png"",0],[""img/square.png"",""img/attention.png"",0],[""img/square.png"",0,""img/square.png""]]","","","","","null","","","","","","","","","",""
"vsl-grid-attention-check","64","187211","0.0-5.0-1.0-0.11-0.11","","null","[[""img/square.png"",""img/square.png"",0],[""img/square.png"",""img/attention.png"",0],[0,""img/square.png"",""img/square.png""]]","","","","","null","","","","","","","","","",""
"vsl-grid-attention-check","65","190220","0.0-5.0-1.0-0.12-0.12","","null","[[0,0,""img/square.png""],[""img/square.png"",""img/attention.png"",""img/square.png""],[""img/square.png"",""img/square.png"",0]]","","","","","null","","","","","","","","","",""
"vsl-grid-attention-check","66","193235","0.0-5.0-1.0-0.13-0.13","","null","[[""img/square.png"",""img/square.png"",0],[""img/square.png"",""img/attention.png"",0],[0,""img/square.png"",""img/square.png""]]","","","","","null","","","","","","","","","",""
"vsl-grid-attention-check","67","196240","0.0-5.0-1.0-0.14-0.14","","null","[[""img/square.png"",0,""img/square.png""],[""img/square.png"",""img/attention.png"",""img/square.png""],[0,0,""img/square.png""]]","","","","","null","","","","","","","","","",""
"vsl-grid-attention-check","68","199246","0.0-5.0-1.0-0.15-0.15","","null","[[0,0,""img/square.png""],[""img/square.png"",""img/attention.png"",""img/square.png""],[0,""img/square.png"",""img/square.png""]]","","","","","null","","","","","","","","","",""
"vsl-grid-attention-check","69","202251","0.0-5.0-1.0-0.16-0.16","","null","[[""img/square.png"",""img/square.png"",""img/square.png""],[""img/square.png"",""img/attention.png"",""img/square.png""],[0,0,0]]","","","","","null","","","","","","","","","",""
"vsl-grid-attention-check","70","205269","0.0-5.0-1.0-0.17-0.17","","null","[[""img/square.png"",0,""img/square.png""],[""img/square.png"",""img/attention.png"",0],[""img/square.png"",""img/square.png"",0]]","","","","","null","","","","","","","","","",""
"vsl-grid-attention-check","71","208271","0.0-5.0-1.0-0.18-0.18","","null","[[""img/square.png"",""img/square.png"",0],[0,""img/attention.png"",""img/square.png""],[0,""img/square.png"",""img/square.png""]]","","","","","null","","","","","","","","","",""
"vsl-grid-attention-check","72","211278","0.0-5.0-1.0-0.19-0.19","","null","[[""img/square.png"",0,0],[""img/square.png"",""img/attention.png"",""img/square.png""],[""img/square.png"",0,""img/square.png""]]","","","","","null","","","","","","","","","",""
"vsl-grid-attention-check","73","214281","0.0-5.0-1.0-0.20-0.20","","null","[[0,""img/square.png"",""img/square.png""],[""img/square.png"",""img/attention.png"",0],[""img/square.png"",""img/square.png"",0]]","","","","","null","","","","","","","","","",""
"vsl-grid-attention-check","74","217290","0.0-5.0-1.0-0.21-0.21","","null","[[""img/square.png"",""img/square.png"",""img/square.png""],[0,""img/attention.png"",""img/square.png""],[0,0,""img/square.png""]]","","","","","null","","","","","","","","","",""
"vsl-grid-attention-check","75","220305","0.0-5.0-1.0-0.22-0.22","","null","[[""img/square.png"",""img/square.png"",""img/square.png""],[""img/square.png"",""img/attention.png"",""img/square.png""],[0,0,0]]","","","","","null","","","","","","","","","",""
"vsl-grid-attention-check","76","223314","0.0-5.0-1.0-0.23-0.23","","null","[[0,0,""img/square.png""],[""img/square.png"",""img/attention.png"",""img/square.png""],[""img/square.png"",0,""img/square.png""]]","","","","","null","","","","","","","","","",""
"vsl-grid-attention-check","77","226317","0.0-5.0-1.0-0.24-0.24","","null","[[""img/square.png"",""img/square.png"",0],[""img/square.png"",""img/attention.png"",""img/square.png""],[""img/square.png"",0,0]]","","","","","null","","","","","","","","","",""
"vsl-grid-attention-check","78","229325","0.0-5.0-1.0-0.25-0.25","","null","[[""img/square.png"",""img/square.png"",0],[""img/square.png"",""img/attention.png"",0],[""img/square.png"",""img/square.png"",0]]","","","","","null","","","","","","","","","",""
"vsl-grid-attention-check","79","232340","0.0-5.0-1.0-0.26-0.26","","null","[[""img/square.png"",""img/square.png"",0],[""img/square.png"",""img/attention.png"",0],[""img/square.png"",0,""img/square.png""]]","","","","","null","","","","","","","","","",""
"vsl-grid-attention-check","80","235350","0.0-5.0-1.0-0.27-0.27","","null","[[""img/square.png"",""img/square.png"",0],[0,""img/attention.png"",""img/square.png""],[""img/square.png"",""img/square.png"",0]]","","","","","null","","","","","","","","","",""
"vsl-grid-attention-check","81","238357","0.0-5.0-1.0-0.28-0.28","","null","[[""img/square.png"",""img/square.png"",""img/square.png""],[0,""img/attention.png"",0],[""img/square.png"",""img/square.png"",0]]","","","","","null","","","","","","","","","",""
"vsl-grid-attention-check","82","241373","0.0-5.0-1.0-0.29-0.29","","null","[[""img/square.png"",0,""img/square.png""],[""img/square.png"",""img/attention.png"",""img/square.png""],[0,""img/square.png"",0]]","","","","","null","","","","","","","","","",""
"vsl-grid-attention-check","83","244374","0.0-5.0-1.0-0.30-0.30","","null","[[""img/square.png"",""img/square.png"",""img/square.png""],[0,""img/attention.png"",0],[""img/square.png"",""img/square.png"",0]]","","","","","null","","","","","","","","","",""
"vsl-grid-attention-check","84","247387","0.0-5.0-1.0-0.31-0.31","","null","[[0,""img/square.png"",""img/square.png""],[0,""img/attention.png"",""img/square.png""],[""img/square.png"",""img/square.png"",0]]","","","","","null","","","","","","","","","",""
"vsl-grid-attention-check","85","250395","0.0-5.0-1.0-0.32-0.32","","null","[[0,""img/square.png"",""img/square.png""],[0,""img/attention.png"",""img/square.png""],[""img/square.png"",""img/square.png"",0]]","","","","","null","","","","","","","","","",""
"vsl-grid-attention-check","86","253406","0.0-5.0-1.0-0.33-0.33","","null","[[0,""img/square.png"",""img/square.png""],[0,""img/attention.png"",""img/square.png""],[""img/square.png"",0,""img/square.png""]]","","","","","null","","","","","","","","","",""
"vsl-grid-attention-check","87","256410","0.0-5.0-1.0-0.34-0.34","","null","[[""img/square.png"",""img/square.png"",0],[0,""img/attention.png"",0],[""img/square.png"",""img/square.png"",""img/square.png""]]","","","","","null","","","","","","","","","",""
"vsl-grid-attention-check","88","259419","0.0-5.0-1.0-0.35-0.35","","null","[[0,""img/square.png"",""img/square.png""],[""img/square.png"",""img/attention.png"",""img/square.png""],[0,""img/square.png"",0]]","","","","","null","","","","","","","","","",""
"vsl-grid-attention-check","89","262434","0.0-5.0-1.0-0.36-0.36","","null","[[""img/square.png"",""img/square.png"",0],[""img/square.png"",""img/attention.png"",""img/square.png""],[""img/square.png"",0,0]]","","","","","null","","","","","","","","","",""
"vsl-grid-attention-check","90","265436","0.0-5.0-1.0-0.37-0.37","","null","[[""img/square.png"",""img/square.png"",0],[""img/square.png"",""img/attention.png"",""img/square.png""],[0,0,""img/square.png""]]","","","","","null","","","","","","","","","",""
"vsl-grid-attention-check","91","268439","0.0-5.0-1.0-0.38-0.38","","null","[[""img/square.png"",0,""img/square.png""],[""img/square.png"",""img/attention.png"",0],[0,""img/square.png"",""img/square.png""]]","","","","","null","","","","","","","","","",""
"vsl-grid-attention-check","92","271444","0.0-5.0-1.0-0.39-0.39","","null","[[""img/square.png"",""img/square.png"",""img/square.png""],[0,""img/attention.png"",""img/square.png""],[0,""img/square.png"",0]]","","","","","null","","","","","","","","","",""
"vsl-grid-attention-check","93","274447","0.0-5.0-1.0-0.40-0.40","","null","[[""img/square.png"",""img/square.png"",""img/square.png""],[0,""img/attention.png"",""img/square.png""],[0,0,""img/square.png""]]","","","","","null","","","","","","","","","",""
"vsl-grid-attention-check","94","277464","0.0-5.0-1.0-0.41-0.41","","null","[[""img/square.png"",0,""img/square.png""],[0,""img/attention.png"",0],[""img/square.png"",""img/square.png"",""img/square.png""]]","","","","","null","","","","","","","","","",""
"vsl-grid-attention-check","95","280467","0.0-5.0-1.0-0.42-0.42","","null","[[""img/square.png"",""img/square.png"",""img/square.png""],[0,""img/attention.png"",0],[""img/square.png"",0,""img/square.png""]]","","","","","null","","","","","","","","","",""
"vsl-grid-attention-check","96","283481","0.0-5.0-1.0-0.43-0.43","","null","[[""img/square.png"",""img/square.png"",""img/square.png""],[""img/square.png"",""img/attention.png"",0],[""img/square.png"",0,0]]","","","","","null","","","","","","","","","",""
"vsl-grid-attention-check","97","286483","0.0-5.0-1.0-0.44-0.44","","null","[[""img/square.png"",""img/square.png"",""img/square.png""],[""img/square.png"",""img/attention.png"",""img/square.png""],[0,0,0]]","","","","","null","","","","","","","","","",""
"vsl-grid-attention-check","98","289498","0.0-5.0-1.0-0.45-0.45","","null","[[""img/square.png"",0,""img/square.png""],[""img/square.png"",""img/attention.png"",0],[""img/square.png"",0,""img/square.png""]]","","","","","null","","","","","","","","","",""
"vsl-grid-attention-check","99","292506","0.0-5.0-1.0-0.46-0.46","","null","[[""img/square.png"",""img/square.png"",""img/square.png""],[0,""img/attention.png"",""img/square.png""],[0,0,""img/square.png""]]","","","","","null","","","","","","","","","",""
"vsl-grid-attention-check","100","295510","0.0-5.0-1.0-0.47-0.47","","null","[[""img/square.png"",""img/square.png"",""img/square.png""],[0,""img/attention.png"",0],[0,""img/square.png"",""img/square.png""]]","","","","","null","","","","","","","","","",""
"vsl-grid-attention-check","101","298519","0.0-5.0-1.0-0.48-0.48","","null","[[0,""img/square.png"",0],[""img/square.png"",""img/attention.png"",""img/square.png""],[""img/square.png"",""img/square.png"",0]]","","","","","null","","","","","","","","","",""
"vsl-grid-attention-check","102","301533","0.0-5.0-1.0-0.49-0.49","","null","[[0,0,""img/square.png""],[""img/square.png"",""img/attention.png"",""img/square.png""],[""img/square.png"",""img/square.png"",0]]","","","","","null","","","","","","","","","",""
"vsl-grid-attention-check","103","304535","0.0-5.0-1.0-0.50-0.50","","null","[[0,""img/square.png"",""img/square.png""],[""img/square.png"",""img/attention.png"",""img/square.png""],[0,""img/square.png"",0]]","","","","","null","","","","","","","","","",""
"vsl-grid-attention-check","104","307547","0.0-5.0-1.0-0.51-0.51","","null","[[""img/square.png"",""img/square.png"",0],[""img/square.png"",""img/attention.png"",0],[""img/square.png"",""img/square.png"",0]]","","","","","null","","","","","","","","","",""
"vsl-grid-attention-check","105","310554","0.0-5.0-1.0-0.52-0.52","","null","[[""img/square.png"",""img/square.png"",""img/square.png""],[""img/square.png"",""img/attention.png"",0],[0,0,""img/square.png""]]","","","","","null","","","","","","","","","",""
"vsl-grid-attention-check","106","313557","0.0-5.0-1.0-0.53-0.53","","null","[[""img/square.png"",""img/square.png"",""img/square.png""],[""img/square.png"",""img/attention.png"",0],[0,""img/square.png"",0]]","","","","","null","","","","","","","","","",""
"vsl-grid-attention-check","107","316559","0.0-5.0-1.0-0.54-0.54","","null","[[""img/square.png"",""img/square.png"",0],[""img/square.png"",""img/attention.png"",0],[""img/square.png"",0,""img/square.png""]]","","","","","null","","","","","","","","","",""
"vsl-grid-attention-check","108","319576","0.0-5.0-1.0-0.55-0.55","","null","[[""img/square.png"",""img/square.png"",""img/square.png""],[0,""img/attention.png"",""img/square.png""],[""img/square.png"",0,0]]","","","","","null","","","","","","","","","",""
"vsl-grid-attention-check","109","322579","0.0-5.0-1.0-0.56-0.56","","null","[[""img/square.png"",0,0],[""img/square.png"",""img/attention.png"",""img/square.png""],[""img/square.png"",""img/square.png"",0]]","","","","","null","","","","","","","","","",""
"vsl-grid-attention-check","110","325589","0.0-5.0-1.0-0.57-0.57","","null","[[""img/square.png"",0,""img/square.png""],[0,""img/attention.png"",""img/square.png""],[""img/square.png"",""img/square.png"",0]]","","","","","null","","","","","","","","","",""
"vsl-grid-attention-check","111","328598","0.0-5.0-1.0-0.58-0.58","","null","[[0,""img/square.png"",""img/square.png""],[0,""img/attention.png"",0],[""img/square.png"",""img/square.png"",""img/square.png""]]","","","","","null","","","","","","","","","",""
"vsl-grid-attention-check","112","331611","0.0-5.0-1.0-0.59-0.59","","null","[[""img/square.png"",0,""img/square.png""],[""img/square.png"",""img/attention.png"",""img/square.png""],[0,""img/square.png"",0]]","","","","","null","","","","","","","","","",""
"vsl-grid-attention-check","113","334615","0.0-5.0-1.0-0.60-0.60","","null","[[""img/square.png"",0,""img/square.png""],[""img/square.png"",""img/attention.png"",0],[""img/square.png"",""img/square.png"",0]]","","","","","null","","","","","","","","","",""
"vsl-grid-attention-check","114","337621","0.0-5.0-1.0-0.61-0.61","","null","[[""img/square.png"",""img/square.png"",""img/square.png""],[0,""img/attention.png"",0],[""img/square.png"",0,""img/square.png""]]","","","","","null","","","","","","","","","",""
"vsl-grid-attention-check","115","340625","0.0-5.0-1.0-0.62-0.62","","null","[[""img/square.png"",0,0],[""img/square.png"",""img/attention.png"",""img/square.png""],[""img/square.png"",0,""img/square.png""]]","","","","","null","","","","","","","","","",""
"vsl-grid-attention-check","116","343632","0.0-5.0-1.0-0.63-0.63","","null","[[0,0,""img/square.png""],[""img/square.png"",""img/attention.png"",0],[""img/square.png"",""img/square.png"",""img/square.png""]]","","","","","null","","","","","","","","","",""
"vsl-grid-attention-check","117","346634","0.0-5.0-1.0-0.64-0.64","","null","[[""img/square.png"",""img/square.png"",""img/square.png""],[""img/square.png"",""img/attention.png"",0],[0,0,""img/square.png""]]","","","","","null","","","","","","","","","",""
"vsl-grid-attention-check","118","349642","0.0-5.0-1.0-0.65-0.65","","null","[[""img/square.png"",""img/square.png"",""img/square.png""],[""img/square.png"",""img/attention.png"",0],[0,""img/square.png"",0]]","","","","","null","","","","","","","","","",""
"vsl-grid-attention-check","119","352659","0.0-5.0-1.0-0.66-0.66","","null","[[0,""img/square.png"",0],[""img/square.png"",""img/attention.png"",""img/square.png""],[""img/square.png"",""img/square.png"",0]]","","","","","null","","","","","","","","","",""
"vsl-grid-attention-check","120","355664","0.0-5.0-1.0-0.67-0.67","","null","[[""img/square.png"",0,""img/square.png""],[0,""img/attention.png"",""img/square.png""],[""img/square.png"",""img/square.png"",0]]","","","","","null","","","","","","","","","",""
"vsl-grid-attention-check","121","358666","0.0-5.0-1.0-0.68-0.68","","null","[[0,""img/square.png"",""img/square.png""],[""img/square.png"",""img/attention.png"",0],[0,""img/square.png"",""img/square.png""]]","","","","","null","","","","","","","","","",""
"vsl-grid-attention-check","122","361677","0.0-5.0-1.0-0.69-0.69","","null","[[0,""img/square.png"",0],[""img/square.png"",""img/attention.png"",""img/square.png""],[0,""img/square.png"",""img/square.png""]]","","","","","null","","","","","","","","","",""
"vsl-grid-attention-check","123","364679","0.0-5.0-1.0-0.70-0.70","","null","[[0,0,""img/square.png""],[""img/square.png"",""img/attention.png"",""img/square.png""],[""img/square.png"",""img/square.png"",0]]","","","","","null","","","","","","","","","",""
"vsl-grid-attention-check","124","367688","0.0-5.0-1.0-0.71-0.71","","null","[[""img/square.png"",""img/square.png"",0],[0,""img/attention.png"",0],[""img/square.png"",""img/square.png"",""img/square.png""]]","","","","","null","","","","","","","","","",""
"vsl-grid-attention-check","125","370704","0.0-5.0-1.0-0.72-0.72","","null","[[""img/square.png"",0,""img/square.png""],[""img/square.png"",""img/attention.png"",0],[""img/square.png"",0,""img/square.png""]]","","","","","null","","","","","","","","","",""
"vsl-grid-attention-check","126","373715","0.0-5.0-1.0-0.73-0.73","","null","[[""img/square.png"",""img/square.png"",""img/square.png""],[0,""img/attention.png"",0],[0,""img/square.png"",""img/square.png""]]","","","","","null","","","","","","","","","",""
"vsl-grid-attention-check","127","376721","0.0-5.0-1.0-0.74-0.74","","null","[[0,""img/square.png"",""img/square.png""],[""img/square.png"",""img/attention.png"",0],[""img/square.png"",0,""img/square.png""]]","","","","","null","","","","","","","","","",""
"vsl-grid-attention-check","128","379731","0.0-5.0-1.0-0.75-0.75","","null","[[""img/square.png"",""img/square.png"",""img/square.png""],[0,""img/attention.png"",0],[""img/square.png"",""img/square.png"",0]]","","","","","null","","","","","","","","","",""
"vsl-grid-attention-check","129","382733","0.0-5.0-1.0-0.76-0.76","","null","[[""img/square.png"",""img/square.png"",0],[0,""img/attention.png"",0],[""img/square.png"",""img/square.png"",""img/square.png""]]","","","","","null","","","","","","","","","",""
"vsl-grid-attention-check","130","385751","0.0-5.0-1.0-0.77-0.77","","null","[[""img/square.png"",""img/square.png"",0],[""img/square.png"",""img/attention.png"",""img/square.png""],[""img/square.png"",0,0]]","","","","","null","","","","","","","","","",""
"vsl-grid-attention-check","131","388753","0.0-5.0-1.0-0.78-0.78","","null","[[0,""img/square.png"",0],[""img/square.png"",""img/attention.png"",""img/square.png""],[0,""img/square.png"",""img/square.png""]]","","","","","null","","","","","","","","","",""
"vsl-grid-attention-check","132","391761","0.0-5.0-1.0-0.79-0.79","","null","[[""img/square.png"",""img/square.png"",""img/square.png""],[0,""img/attention.png"",""img/square.png""],[""img/square.png"",0,0]]","","","","","null","","","","","","","","","",""
"vsl-grid-attention-check","133","394764","0.0-5.0-1.0-0.80-0.80","","null","[[""img/square.png"",0,0],[""img/square.png"",""img/attention.png"",""img/square.png""],[0,""img/square.png"",""img/square.png""]]","","","","","null","","","","","","","","","",""
"vsl-grid-attention-check","134","397772","0.0-5.0-1.0-0.81-0.81","","null","[[""img/square.png"",0,""img/square.png""],[0,""img/attention.png"",""img/square.png""],[0,""img/square.png"",""img/square.png""]]","","","","","null","","","","","","","","","",""
"vsl-grid-attention-check","135","400787","0.0-5.0-1.0-0.82-0.82","","null","[[""img/square.png"",""img/square.png"",0],[0,""img/attention.png"",""img/square.png""],[0,""img/square.png"",""img/square.png""]]","","","","","null","","","","","","","","","",""
"vsl-grid-attention-check","136","403795","0.0-5.0-1.0-0.83-0.83","","null","[[0,""img/square.png"",""img/square.png""],[0,""img/attention.png"",""img/square.png""],[""img/square.png"",""img/square.png"",0]]","","","","","null","","","","","","","","","",""
"vsl-grid-attention-check","137","406796","0.0-5.0-1.0-0.84-0.84","","null","[[""img/square.png"",""img/square.png"",0],[0,""img/attention.png"",0],[""img/square.png"",""img/square.png"",""img/square.png""]]","","","","","null","","","","","","","","","",""
"vsl-grid-attention-check","138","409810","0.0-5.0-1.0-0.85-0.85","","null","[[""img/square.png"",""img/square.png"",0],[0,""img/attention.png"",""img/square.png""],[""img/square.png"",""img/square.png"",0]]","","","","","null","","","","","","","","","",""
"vsl-grid-attention-check","139","412827","0.0-5.0-1.0-0.86-0.86","","null","[[0,""img/square.png"",0],[""img/square.png"",""img/attention.png"",""img/square.png""],[""img/square.png"",""img/square.png"",0]]","","","","","null","","","","","","","","","",""
"vsl-grid-attention-check","140","415835","0.0-5.0-1.0-0.87-0.87","","null","[[""img/square.png"",0,""img/square.png""],[""img/square.png"",""img/attention.png"",0],[""img/square.png"",0,""img/square.png""]]","","","","","null","","","","","","","","","",""
"vsl-grid-attention-check","141","418852","0.0-5.0-1.0-0.88-0.88","","null","[[""img/square.png"",""img/square.png"",0],[0,""img/attention.png"",0],[""img/square.png"",""img/square.png"",""img/square.png""]]","","","","","null","","","","","","","","","",""
"vsl-grid-attention-check","142","421866","0.0-5.0-1.0-0.89-0.89","","null","[[0,""img/square.png"",""img/square.png""],[""img/square.png"",""img/attention.png"",0],[""img/square.png"",0,""img/square.png""]]","","","","","null","","","","","","","","","",""
"vsl-grid-attention-check","143","424868","0.0-5.0-1.0-0.90-0.90","","null","[[""img/square.png"",0,""img/square.png""],[""img/square.png"",""img/attention.png"",""img/square.png""],[""img/square.png"",0,0]]","","","","","null","","","","","","","","","",""
"vsl-grid-attention-check","144","427881","0.0-5.0-1.0-0.91-0.91","","null","[[0,""img/square.png"",""img/square.png""],[""img/square.png"",""img/attention.png"",0],[""img/square.png"",0,""img/square.png""]]","","","","","null","","","","","","","","","",""
"vsl-grid-attention-check","145","430883","0.0-5.0-1.0-0.92-0.92","","null","[[""img/square.png"",""img/square.png"",""img/square.png""],[0,""img/attention.png"",""img/square.png""],[""img/square.png"",0,0]]","","","","","null","","","","","","","","","",""
"vsl-grid-attention-check","146","433891","0.0-5.0-1.0-0.93-0.93","","null","[[""img/square.png"",0,0],[""img/square.png"",""img/attention.png"",""img/square.png""],[0,""img/square.png"",""img/square.png""]]","","","","","null","","","","","","","","","",""
"vsl-grid-attention-check","147","436894","0.0-5.0-1.0-0.94-0.94","","null","[[""img/square.png"",""img/square.png"",0],[""img/square.png"",""img/attention.png"",""img/square.png""],[0,0,""img/square.png""]]","","","","","null","","","","","","","","","",""
"vsl-grid-attention-check","148","439911","0.0-5.0-1.0-0.95-0.95","","null","[[""img/square.png"",""img/square.png"",""img/square.png""],[0,""img/attention.png"",""img/square.png""],[""img/square.png"",0,0]]","","","","","null","","","","","","","","","",""
"vsl-grid-attention-check","149","442914","0.0-5.0-1.0-0.96-0.96","","null","[[0,""img/square.png"",""img/square.png""],[""img/square.png"",""img/attention.png"",0],[0,""img/square.png"",""img/square.png""]]","","","","","null","","","","","","","","","",""
"vsl-grid-attention-check","150","445918","0.0-5.0-1.0-0.97-0.97","","null","[[""img/square.png"",0,""img/square.png""],[""img/square.png"",""img/attention.png"",""img/square.png""],[0,""img/square.png"",0]]","","","","","null","","","","","","","","","",""
"vsl-grid-attention-check","151","448925","0.0-5.0-1.0-0.98-0.98","","null","[[""img/square.png"",0,""img/square.png""],[""img/square.png"",""img/attention.png"",""img/square.png""],[0,""img/square.png"",0]]","","","","","null","","","","","","","","","",""
"vsl-grid-attention-check","152","451937","0.0-5.0-1.0-0.99-0.99","","null","[[0,""img/square.png"",0],[""img/square.png"",""img/attention.png"",""img/square.png""],[""img/square.png"",""img/square.png"",0]]","","","","","null","","","","","","","","","",""
"vsl-grid-attention-check","153","454950","0.0-5.0-1.0-0.100-0.100","","null","[[""img/square.png"",0,""img/square.png""],[0,""img/attention.png"",0],[""img/square.png"",""img/square.png"",""img/square.png""]]","","","","","null","","","","","","","","","",""
"vsl-grid-attention-check","154","457955","0.0-5.0-1.0-0.101-0.101","","null","[[""img/square.png"",0,""img/square.png""],[0,""img/attention.png"",0],[""img/square.png"",""img/square.png"",""img/square.png""]]","","","","","null","","","","","","","","","",""
"vsl-grid-attention-check","155","460963","0.0-5.0-1.0-0.102-0.102","","null","[[""img/square.png"",""img/square.png"",0],[""img/square.png"",""img/attention.png"",0],[""img/square.png"",""img/square.png"",0]]","","","","","null","","","","","","","","","",""
"vsl-grid-attention-check","156","463977","0.0-5.0-1.0-0.103-0.103","","null","[[""img/square.png"",""img/square.png"",""img/square.png""],[""img/square.png"",""img/attention.png"",""img/square.png""],[0,0,0]]","","","","","null","","","","","","","","","",""
"vsl-grid-attention-check","157","466979","0.0-5.0-1.0-0.104-0.104","","null","[[""img/square.png"",0,""img/square.png""],[""img/square.png"",""img/attention.png"",""img/square.png""],[""img/square.png"",0,0]]","","","","","null","","","","","","","","","",""
"vsl-grid-attention-check","158","469987","0.0-5.0-1.0-0.105-0.105","","null","[[""img/square.png"",""img/square.png"",0],[""img/square.png"",""img/attention.png"",""img/square.png""],[0,""img/square.png"",0]]","","","","","null","","","","","","","","","",""
"vsl-grid-attention-check","159","472993","0.0-5.0-1.0-0.106-0.106","","null","[[0,0,0],[""img/square.png"",""img/attention.png"",""img/square.png""],[""img/square.png"",""img/square.png"",""img/square.png""]]","","","","","null","","","","","","","","","",""
"vsl-grid-attention-check","160","476006","0.0-5.0-1.0-0.107-0.107","","null","[[""img/square.png"",""img/square.png"",0],[""img/square.png"",""img/attention.png"",0],[""img/square.png"",0,""img/square.png""]]","","","","","null","","","","","","","","","",""
"vsl-grid-attention-check","161","479010","0.0-5.0-1.0-0.108-0.108","","null","[[""img/square.png"",""img/square.png"",""img/square.png""],[0,""img/attention.png"",0],[""img/square.png"",0,""img/square.png""]]","","","","","null","","","","","","","","","",""
"vsl-grid-attention-check","162","482022","0.0-5.0-1.0-0.109-0.109","","null","[[0,0,""img/square.png""],[""img/square.png"",""img/attention.png"",""img/square.png""],[""img/square.png"",""img/square.png"",0]]","","","","","null","","","","","","","","","",""
"vsl-grid-attention-check","163","485031","0.0-5.0-1.0-0.110-0.110","","null","[[0,""img/square.png"",0],[""img/square.png"",""img/attention.png"",0],[""img/square.png"",""img/square.png"",""img/square.png""]]","","","","","null","","","","","","","","","",""
"vsl-grid-attention-check","164","488045","0.0-5.0-1.0-0.111-0.111","","null","[[""img/square.png"",""img/square.png"",""img/square.png""],[""img/square.png"",""img/attention.png"",0],[0,0,""img/square.png""]]","","","","","null","","","","","","","","","",""
"vsl-grid-attention-check","165","491048","0.0-5.0-1.0-0.112-0.112","","null","[[0,""img/square.png"",""img/square.png""],[""img/square.png"",""img/attention.png"",""img/square.png""],[0,0,""img/square.png""]]","","","","","null","","","","","","","","","",""
"vsl-grid-attention-check","166","494059","0.0-5.0-1.0-0.113-0.113","","null","[[""img/square.png"",0,0],[""img/square.png"",""img/attention.png"",0],[""img/square.png"",""img/square.png"",""img/square.png""]]","","","","","null","","","","","","","","","",""
"vsl-grid-attention-check","167","497061","0.0-5.0-1.0-0.114-0.114","","null","[[""img/square.png"",0,""img/square.png""],[""img/square.png"",""img/attention.png"",""img/square.png""],[""img/square.png"",0,0]]","","","","","null","","","","","","","","","",""
"vsl-grid-attention-check","168","500075","0.0-5.0-1.0-0.115-0.115","","null","[[0,0,""img/square.png""],[""img/square.png"",""img/attention.png"",""img/square.png""],[""img/square.png"",0,""img/square.png""]]","","","","","null","","","","","","","","","",""
"vsl-grid-attention-check","169","503078","0.0-5.0-1.0-0.116-0.116","","null","[[0,0,0],[""img/square.png"",""img/attention.png"",""img/square.png""],[""img/square.png"",""img/square.png"",""img/square.png""]]","","","","","null","","","","","","","","","",""
"vsl-grid-attention-check","170","506080","0.0-5.0-1.0-0.117-0.117","","null","[[""img/square.png"",""img/square.png"",""img/square.png""],[""img/square.png"",""img/attention.png"",0],[0,""img/square.png"",0]]","","","","","null","","","","","","","","","",""
"vsl-grid-attention-check","171","509082","0.0-5.0-1.0-0.118-0.118","","null","[[""img/square.png"",0,""img/square.png""],[""img/square.png"",""img/attention.png"",""img/square.png""],[""img/square.png"",0,0]]","","","","","null","","","","","","","","","",""
"vsl-grid-attention-check","172","512083","0.0-5.0-1.0-0.119-0.119","","null","[[""img/square.png"",""img/square.png"",""img/square.png""],[0,""img/attention.png"",""img/square.png""],[0,0,""img/square.png""]]","","","","","null","","","","","","","","","",""
"vsl-grid-attention-check","173","515086","0.0-5.0-1.0-0.120-0.120","","null","[[""img/square.png"",""img/square.png"",""img/square.png""],[""img/square.png"",""img/attention.png"",0],[0,""img/square.png"",0]]","","","","","null","","","","","","","","","",""
"vsl-grid-attention-check","174","518087","0.0-5.0-1.0-0.121-0.121","","null","[[""img/square.png"",""img/square.png"",""img/square.png""],[""img/square.png"",""img/attention.png"",0],[0,""img/square.png"",0]]","","","","","null","","","","","","","","","",""
"vsl-grid-attention-check","175","518666","0.0-5.0-1.0-0.122-0.122","","577.5","[[0,""img/square.png"",""img/square.png""],[""img/square.png"",""img/attention.png"",0],[""img/square.png"",0,""img/square.png""]]","","","","","32","","","","","","","","","",""
"html-keyboard-response","176","519678","0.0-5.0-1.0-1.0","","null"," ","","","","","null","","","","","","","","","",""
"vsl-grid-scene-snap","177","521679","0.0-5.0-2.0-0.0","","","[[""img/obj5.png"",""img/obj3.png"",""img/obj1.png""],[0,""img/obj4.png"",""img/obj11.png""],[0,0,""img/obj8.png""]]","","","3,2,1,1,1,3,3,1,5","116","","","","","","","","","","",""
"vsl-grid-scene-snap","178","524688","0.0-5.0-2.0-1.0","","","[[""img/obj6.png"",""img/obj9.png"",""img/obj7.png""],[0,""img/obj12.png"",""img/obj10.png""],[0,0,""img/obj2.png""]]","","","3,1,2,1,1,4,2,2,6","83","","","","","","","","","","",""
"vsl-grid-scene-snap","179","527696","0.0-5.0-2.0-2.0","","","[[0,""img/obj1.png"",0],[""img/obj4.png"",0,""img/obj11.png""],[""img/obj6.png"",""img/obj9.png"",""img/obj8.png""]]","","","3,2,1,1,3,4,2,1,5","134","","","","","","","","","","",""
"vsl-grid-scene-snap","180","530714","0.0-5.0-2.0-3.0","","","[[""img/obj12.png"",""img/obj6.png"",""img/obj9.png""],[0,""img/obj2.png"",""img/obj7.png""],[0,0,""img/obj10.png""]]","","","3,2,2,2,1,4,1,1,6","131","","","","","","","","","","",""
"vsl-grid-scene-snap","181","533721","0.0-5.0-2.0-4.0","","","[[""img/obj11.png"",""img/obj6.png"",""img/obj9.png""],[""img/obj8.png"",0,""img/obj1.png""],[0,""img/obj4.png"",0]]","","","1,1,1,2,1,4,3,2,5","2","","","","","","","","","","",""
"vsl-grid-scene-snap","182","536726","0.0-5.0-2.0-5.0","","","[[0,""img/obj6.png"",""img/obj9.png""],[""img/obj7.png"",""img/obj12.png"",0],[""img/obj10.png"",0,""img/obj2.png""]]","","","1,2,2,2,1,4,2,2,6","47","","","","","","","","","","",""
"vsl-grid-scene-snap","183","539732","0.0-5.0-2.0-6.0","","","[[""img/obj12.png"",0,""img/obj7.png""],[0,""img/obj2.png"",""img/obj10.png""],[0,""img/obj5.png"",""img/obj3.png""]]","","","3,1,2,2,3,3,1,1,6","93","","","","","","","","","","",""
"vsl-grid-scene-snap","184","542745","0.0-5.0-2.0-7.0","","","[[""img/obj6.png"",""img/obj9.png"",0],[0,""img/obj1.png"",""img/obj7.png""],[""img/obj4.png"",0,""img/obj10.png""]]","","","3,2,2,1,1,4,2,2,5","111","","","","","","","","","","",""
"vsl-grid-scene-snap","185","545775","0.0-5.0-2.0-8.0","","","[[0,""img/obj12.png"",0],[""img/obj7.png"",0,""img/obj2.png""],[""img/obj10.png"",""img/obj5.png"",""img/obj3.png""]]","","","1,2,2,2,3,3,2,1,6","53","","","","","","","","","","",""
"vsl-grid-scene-snap","186","548797","0.0-5.0-2.0-9.0","","","[[""img/obj11.png"",""img/obj5.png"",""img/obj3.png""],[""img/obj8.png"",""img/obj12.png"",0],[0,0,""img/obj2.png""]]","","","1,1,1,2,1,3,2,2,6","8","","","","","","","","","","",""
"vsl-grid-scene-snap","187","551801","0.0-5.0-2.0-10.0","","","[[""img/obj11.png"",""img/obj12.png"",0],[""img/obj8.png"",0,""img/obj2.png""],[0,""img/obj6.png"",""img/obj9.png""]]","","","1,1,1,2,3,4,2,1,6","22","","","","","","","","","","",""
"vsl-grid-scene-snap","188","554816","0.0-5.0-2.0-11.0","","","[[""img/obj11.png"",""img/obj12.png"",0],[""img/obj8.png"",0,""img/obj2.png""],[""img/obj6.png"",""img/obj9.png"",0]]","","","1,1,1,1,3,4,2,1,6","30","","","","","","","","","","",""
"vsl-grid-scene-snap","189","557834","0.0-5.0-2.0-12.0","","","[[0,""img/obj1.png"",0],[""img/obj4.png"",0,""img/obj7.png""],[""img/obj6.png"",""img/obj9.png"",""img/obj10.png""]]","","","3,2,2,1,3,4,2,1,5","135","","","","","","","","","","",""
"vsl-grid-scene-snap","190","560839","0.0-5.0-2.0-13.0","","","[[""img/obj7.png"",0,""img/obj1.png""],[""img/obj10.png"",""img/obj4.png"",0],[0,""img/obj6.png"",""img/obj9.png""]]","","","1,1,2,2,3,4,3,1,5","15","","","","","","","","","","",""
"vsl-grid-scene-snap","191","563852","0.0-5.0-2.0-14.0","","","[[0,""img/obj5.png"",""img/obj3.png""],[0,""img/obj1.png"",""img/obj11.png""],[""img/obj4.png"",0,""img/obj8.png""]]","","","3,2,1,2,1,3,2,2,5","120","","","","","","","","","","",""
"vsl-grid-scene-snap","192","566856","0.0-5.0-2.0-15.0","","","[[0,0,""img/obj1.png""],[""img/obj7.png"",""img/obj4.png"",0],[""img/obj10.png"",""img/obj6.png"",""img/obj9.png""]]","","","1,2,2,2,3,4,3,1,5","51","","","","","","","","","","",""
"vsl-grid-scene-snap","193","569874","0.0-5.0-2.0-16.0","","","[[0,0,""img/obj1.png""],[0,""img/obj4.png"",""img/obj11.png""],[""img/obj5.png"",""img/obj3.png"",""img/obj8.png""]]","","","3,2,1,1,3,3,3,1,5","140","","","","","","","","","","",""
"vsl-grid-scene-snap","194","572898","0.0-5.0-2.0-17.0","","","[[""img/obj5.png"",""img/obj3.png"",""img/obj11.png""],[0,""img/obj12.png"",""img/obj8.png""],[0,0,""img/obj2.png""]]","","","3,1,1,1,1,3,2,2,6","80","","","","","","","","","","",""
"vsl-grid-scene-snap","195","575909","0.0-5.0-2.0-18.0","","","[[""img/obj7.png"",""img/obj6.png"",""img/obj9.png""],[""img/obj10.png"",""img/obj12.png"",0],[0,0,""img/obj2.png""]]","","","1,1,2,2,1,4,2,2,6","11","","","","","","","","","","",""
"vsl-grid-scene-snap","196","578914","0.0-5.0-2.0-19.0","","","[[""img/obj11.png"",""img/obj5.png"",""img/obj3.png""],[""img/obj8.png"",""img/obj1.png"",0],[""img/obj4.png"",0,0]]","","","1,1,1,2,1,3,2,2,5","4","","","","","","","","","","",""
"vsl-grid-scene-snap","197","581931","0.0-5.0-2.0-20.0","","","[[""img/obj5.png"",""img/obj3.png"",0],[""img/obj7.png"",0,""img/obj1.png""],[""img/obj10.png"",""img/obj4.png"",0]]","","","1,2,2,1,1,3,3,2,5","61","","","","","","","","","","",""
"vsl-grid-scene-snap","198","584956","0.0-5.0-2.0-21.0","","","[[""img/obj5.png"",""img/obj3.png"",""img/obj7.png""],[0,""img/obj1.png"",""img/obj10.png""],[""img/obj4.png"",0,0]]","","","3,1,2,1,1,3,2,2,5","73","","","","","","","","","","",""
"vsl-grid-scene-snap","199","587963","0.0-5.0-2.0-22.0","","","[[0,""img/obj1.png"",""img/obj7.png""],[""img/obj4.png"",0,""img/obj10.png""],[""img/obj5.png"",""img/obj3.png"",0]]","","","3,1,2,1,3,3,2,1,5","97","","","","","","","","","","",""
"vsl-grid-scene-snap","200","590968","0.0-5.0-2.0-23.0","","","[[""img/obj7.png"",0,""img/obj1.png""],[""img/obj10.png"",""img/obj4.png"",0],[""img/obj5.png"",""img/obj3.png"",0]]","","","1,1,2,1,3,3,3,1,5","25","","","","","","","","","","",""
"vsl-grid-scene-snap","201","593980","0.0-5.0-2.0-24.0","","","[[0,""img/obj5.png"",""img/obj3.png""],[""img/obj7.png"",""img/obj12.png"",0],[""img/obj10.png"",0,""img/obj2.png""]]","","","1,2,2,2,1,3,2,2,6","45","","","","","","","","","","",""
"vsl-grid-scene-snap","202","596981","0.0-5.0-2.0-25.0","","","[[0,""img/obj5.png"",""img/obj3.png""],[0,""img/obj1.png"",""img/obj7.png""],[""img/obj4.png"",0,""img/obj10.png""]]","","","3,2,2,2,1,3,2,2,5","121","","","","","","","","","","",""
"vsl-grid-scene-snap","203","599993","0.0-5.0-2.0-26.0","","","[[""img/obj12.png"",0,0],[""img/obj11.png"",""img/obj2.png"",0],[""img/obj8.png"",""img/obj6.png"",""img/obj9.png""]]","","","1,2,1,2,3,4,1,1,6","58","","","","","","","","","","",""
"vsl-grid-scene-snap","204","603007","0.0-5.0-2.0-27.0","","","[[""img/obj11.png"",""img/obj5.png"",""img/obj3.png""],[""img/obj8.png"",0,""img/obj1.png""],[0,""img/obj4.png"",0]]","","","1,1,1,2,1,3,3,2,5","0","","","","","","","","","","",""
"vsl-grid-scene-snap","205","606013","0.0-5.0-2.0-28.0","","","[[0,""img/obj1.png"",""img/obj11.png""],[""img/obj4.png"",0,""img/obj8.png""],[0,""img/obj5.png"",""img/obj3.png""]]","","","3,1,1,2,3,3,2,1,5","88","","","","","","","","","","",""
"vsl-grid-scene-snap","206","609019","0.0-5.0-2.0-29.0","","","[[""img/obj6.png"",""img/obj9.png"",0],[""img/obj11.png"",""img/obj12.png"",0],[""img/obj8.png"",0,""img/obj2.png""]]","","","1,2,1,1,1,4,2,2,6","70","","","","","","","","","","",""
"vsl-grid-scene-snap","207","612033","0.0-5.0-2.0-30.0","","","[[""img/obj12.png"",""img/obj5.png"",""img/obj3.png""],[0,""img/obj2.png"",""img/obj7.png""],[0,0,""img/obj10.png""]]","","","3,2,2,2,1,3,1,1,6","129","","","","","","","","","","",""
"vsl-grid-scene-snap","208","615045","0.0-5.0-2.0-31.0","","","[[""img/obj6.png"",""img/obj9.png"",""img/obj11.png""],[0,""img/obj1.png"",""img/obj8.png""],[""img/obj4.png"",0,0]]","","","3,1,1,1,1,4,2,2,5","74","","","","","","","","","","",""
"vsl-grid-scene-snap","209","618066","0.0-5.0-2.0-32.0","","","[[""img/obj12.png"",0,0],[0,""img/obj2.png"",""img/obj11.png""],[""img/obj5.png"",""img/obj3.png"",""img/obj8.png""]]","","","3,2,1,1,3,3,1,1,6","136","","","","","","","","","","",""
"vsl-grid-scene-snap","210","621088","0.0-5.0-2.0-33.0","","","[[""img/obj11.png"",""img/obj6.png"",""img/obj9.png""],[""img/obj8.png"",""img/obj1.png"",0],[""img/obj4.png"",0,0]]","","","1,1,1,2,1,4,2,2,5","6","","","","","","","","","","",""
"vsl-grid-scene-snap","211","624104","0.0-5.0-2.0-34.0","","","[[""img/obj6.png"",""img/obj9.png"",""img/obj1.png""],[""img/obj11.png"",""img/obj4.png"",0],[""img/obj8.png"",0,0]]","","","1,2,1,1,1,4,3,1,5","66","","","","","","","","","","",""
"vsl-grid-scene-snap","212","627109","0.0-5.0-2.0-35.0","","","[[""img/obj6.png"",""img/obj9.png"",""img/obj7.png""],[""img/obj12.png"",0,""img/obj10.png""],[0,""img/obj2.png"",0]]","","","3,1,2,1,1,4,1,2,6","79","","","","","","","","","","",""
"vsl-grid-scene-snap","213","630127","0.0-5.0-2.0-36.0","","","[[0,""img/obj6.png"",""img/obj9.png""],[""img/obj12.png"",0,""img/obj7.png""],[0,""img/obj2.png"",""img/obj10.png""]]","","","3,2,2,2,1,4,1,2,6","127","","","","","","","","","","",""
"vsl-grid-scene-snap","214","633144","0.0-5.0-2.0-37.0","","","[[""img/obj7.png"",""img/obj12.png"",0],[""img/obj10.png"",0,""img/obj2.png""],[""img/obj5.png"",""img/obj3.png"",0]]","","","1,1,2,1,3,3,2,1,6","29","","","","","","","","","","",""
"vsl-grid-scene-snap","215","636161","0.0-5.0-2.0-38.0","","","[[0,0,""img/obj11.png""],[0,""img/obj12.png"",""img/obj8.png""],[""img/obj6.png"",""img/obj9.png"",""img/obj2.png""]]","","","3,1,1,1,3,4,2,2,6","106","","","","","","","","","","",""
"vsl-grid-scene-snap","216","639169","0.0-5.0-2.0-39.0","","","[[""img/obj12.png"",0,""img/obj11.png""],[0,""img/obj2.png"",""img/obj8.png""],[""img/obj5.png"",""img/obj3.png"",0]]","","","3,1,1,1,3,3,1,1,6","100","","","","","","","","","","",""
"vsl-grid-scene-snap","217","642178","0.0-5.0-2.0-40.0","","","[[""img/obj11.png"",0,""img/obj1.png""],[""img/obj8.png"",""img/obj4.png"",0],[""img/obj5.png"",""img/obj3.png"",0]]","","","1,1,1,1,3,3,3,1,5","24","","","","","","","","","","",""
"vsl-grid-scene-snap","218","645194","0.0-5.0-2.0-41.0","","","[[0,""img/obj6.png"",""img/obj9.png""],[""img/obj11.png"",0,""img/obj1.png""],[""img/obj8.png"",""img/obj4.png"",0]]","","","1,2,1,2,1,4,3,2,5","38","","","","","","","","","","",""
"vsl-grid-scene-snap","219","648209","0.0-5.0-2.0-42.0","","","[[""img/obj6.png"",""img/obj9.png"",0],[0,""img/obj1.png"",""img/obj11.png""],[""img/obj4.png"",0,""img/obj8.png""]]","","","3,2,1,1,1,4,2,2,5","110","","","","","","","","","","",""
"vsl-grid-scene-snap","220","651218","0.0-5.0-2.0-43.0","","","[[0,""img/obj6.png"",""img/obj9.png""],[0,""img/obj1.png"",""img/obj7.png""],[""img/obj4.png"",0,""img/obj10.png""]]","","","3,2,2,2,1,4,2,2,5","123","","","","","","","","","","",""
"vsl-grid-scene-snap","221","654230","0.0-5.0-2.0-44.0","","","[[0,""img/obj1.png"",0],[""img/obj4.png"",0,""img/obj7.png""],[""img/obj5.png"",""img/obj3.png"",""img/obj10.png""]]","","","3,2,2,1,3,3,2,1,5","133","","","","","","","","","","",""
"vsl-grid-scene-snap","222","657251","0.0-5.0-2.0-45.0","","","[[0,""img/obj6.png"",""img/obj9.png""],[""img/obj12.png"",0,""img/obj11.png""],[0,""img/obj2.png"",""img/obj8.png""]]","","","3,2,1,2,1,4,1,2,6","126","","","","","","","","","","",""
"vsl-grid-scene-snap","223","660255","0.0-5.0-2.0-46.0","","","[[0,0,""img/obj7.png""],[0,""img/obj12.png"",""img/obj10.png""],[""img/obj5.png"",""img/obj3.png"",""img/obj2.png""]]","","","3,1,2,1,3,3,2,2,6","105","","","","","","","","","","",""
"vsl-grid-scene-snap","224","663266","0.0-5.0-2.0-47.0","","","[[""img/obj5.png"",""img/obj3.png"",""img/obj1.png""],[""img/obj11.png"",""img/obj4.png"",0],[""img/obj8.png"",0,0]]","","","1,2,1,1,1,3,3,1,5","64","","","","","","","","","","",""
"vsl-grid-attention-check","225","667271","0.0-5.0-3.0-0.0-0.0","","null","[[""img/square.png"",""img/square.png"",""img/square.png""],[0,""img/attention.png"",0],[""img/square.png"",0,""img/square.png""]]","","","","","null","","","","","","","","","",""
"vsl-grid-attention-check","226","670282","0.0-5.0-3.0-0.1-0.1","","null","[[0,""img/square.png"",0],[""img/square.png"",""img/attention.png"",""img/square.png""],[0,""img/square.png"",""img/square.png""]]","","","","","null","","","","","","","","","",""
"vsl-grid-attention-check","227","673291","0.0-5.0-3.0-0.2-0.2","","null","[[0,0,""img/square.png""],[""img/square.png"",""img/attention.png"",""img/square.png""],[""img/square.png"",""img/square.png"",0]]","","","","","null","","","","","","","","","",""
"vsl-grid-attention-check","228","676293","0.0-5.0-3.0-0.3-0.3","","null","[[""img/square.png"",0,0],[""img/square.png"",""img/attention.png"",""img/square.png""],[0,""img/square.png"",""img/square.png""]]","","","","","null","","","","","","","","","",""
"vsl-grid-attention-check","229","679298","0.0-5.0-3.0-0.4-0.4","","null","[[""img/square.png"",""img/square.png"",""img/square.png""],[""img/square.png"",""img/attention.png"",0],[0,""img/square.png"",0]]","","","","","null","","","","","","","","","",""
"vsl-grid-attention-check","230","681840","0.0-5.0-3.0-0.5-0.5","","2540.199999988079","[[0,""img/square.png"",""img/square.png""],[""img/square.png"",""img/attention.png"",""img/square.png""],[0,""img/square.png"",0]]","","","","","32","","","","","","","","","",""
"html-keyboard-response","231","682842","0.0-5.0-3.0-1.0","","null"," ","","","","","null","","","","","","","","","",""
"vsl-grid-scene-snap","232","684853","0.0-5.0-4.0-0.0","","","[[0,""img/obj12.png"",0],[""img/obj7.png"",0,""img/obj2.png""],[""img/obj10.png"",""img/obj6.png"",""img/obj9.png""]]","","","1,2,2,2,3,4,2,1,6","55","","","","","","","","","","",""
"vsl-grid-scene-snap","233","687869","0.0-5.0-4.0-1.0","","","[[""img/obj12.png"",0,0],[0,""img/obj2.png"",""img/obj7.png""],[""img/obj5.png"",""img/obj3.png"",""img/obj10.png""]]","","","3,2,2,1,3,3,1,1,6","137","","","","","","","","","","",""
"vsl-grid-scene-snap","234","690891","0.0-5.0-4.0-2.0","","","[[""img/obj7.png"",""img/obj6.png"",""img/obj9.png""],[""img/obj10.png"",""img/obj1.png"",0],[""img/obj4.png"",0,0]]","","","1,1,2,2,1,4,2,2,5","7","","","","","","","","","","",""
"vsl-grid-scene-snap","235","693895","0.0-5.0-4.0-3.0","","","[[""img/obj5.png"",""img/obj3.png"",""img/obj1.png""],[""img/obj7.png"",""img/obj4.png"",0],[""img/obj10.png"",0,0]]","","","1,2,2,1,1,3,3,1,5","65","","","","","","","","","","",""
"vsl-grid-scene-snap","236","696903","0.0-5.0-4.0-4.0","","","[[""img/obj6.png"",""img/obj9.png"",0],[""img/obj11.png"",0,""img/obj1.png""],[""img/obj8.png"",""img/obj4.png"",0]]","","","1,2,1,1,1,4,3,2,5","62","","","","","","","","","","",""
"vsl-grid-scene-snap","237","699915","0.0-5.0-4.0-5.0","","","[[""img/obj6.png"",""img/obj9.png"",""img/obj7.png""],[0,""img/obj1.png"",""img/obj10.png""],[""img/obj4.png"",0,0]]","","","3,1,2,1,1,4,2,2,5","75","","","","","","","","","","",""
"vsl-grid-scene-snap","238","702930","0.0-5.0-4.0-6.0","","","[[""img/obj5.png"",""img/obj3.png"",""img/obj11.png""],[0,""img/obj1.png"",""img/obj8.png""],[""img/obj4.png"",0,0]]","","","3,1,1,1,1,3,2,2,5","72","","","","","","","","","","",""
"vsl-grid-scene-snap","239","705931","0.0-5.0-4.0-7.0","","","[[""img/obj6.png"",""img/obj9.png"",""img/obj11.png""],[""img/obj12.png"",0,""img/obj8.png""],[0,""img/obj2.png"",0]]","","","3,1,1,1,1,4,1,2,6","78","","","","","","","","","","",""
"vsl-grid-scene-snap","240","708948","0.0-5.0-4.0-8.0","","","[[""img/obj12.png"",0,0],[""img/obj11.png"",""img/obj2.png"",0],[""img/obj8.png"",""img/obj5.png"",""img/obj3.png""]]","","","1,2,1,2,3,3,1,1,6","56","","","","","","","","","","",""
"vsl-grid-scene-snap","241","711961","0.0-5.0-4.0-9.0","","","[[""img/obj5.png"",""img/obj3.png"",""img/obj11.png""],[""img/obj12.png"",0,""img/obj8.png""],[0,""img/obj2.png"",0]]","","","3,1,1,1,1,3,1,2,6","76","","","","","","","","","","",""
"vsl-grid-scene-snap","242","714971","0.0-5.0-4.0-10.0","","","[[""img/obj7.png"",""img/obj12.png"",0],[""img/obj10.png"",0,""img/obj2.png""],[0,""img/obj6.png"",""img/obj9.png""]]","","","1,1,2,2,3,4,2,1,6","23","","","","","","","","","","",""
"vsl-grid-scene-snap","243","717990","0.0-5.0-4.0-11.0","","","[[""img/obj7.png"",0,0],[""img/obj10.png"",""img/obj1.png"",0],[""img/obj4.png"",""img/obj5.png"",""img/obj3.png""]]","","","1,1,2,2,3,3,2,2,5","17","","","","","","","","","","",""
"vsl-grid-scene-snap","244","720999","0.0-5.0-4.0-12.0","","","[[""img/obj11.png"",0,""img/obj1.png""],[""img/obj8.png"",""img/obj4.png"",0],[0,""img/obj5.png"",""img/obj3.png""]]","","","1,1,1,2,3,3,3,1,5","12","","","","","","","","","","",""
"vsl-grid-scene-snap","245","724006","0.0-5.0-4.0-13.0","","","[[0,""img/obj1.png"",""img/obj7.png""],[""img/obj4.png"",0,""img/obj10.png""],[0,""img/obj6.png"",""img/obj9.png""]]","","","3,1,2,2,3,4,2,1,5","91","","","","","","","","","","",""
"vsl-grid-scene-snap","246","727012","0.0-5.0-4.0-14.0","","","[[""img/obj7.png"",""img/obj12.png"",0],[""img/obj10.png"",0,""img/obj2.png""],[0,""img/obj5.png"",""img/obj3.png""]]","","","1,1,2,2,3,3,2,1,6","21","","","","","","","","","","",""
"vsl-grid-scene-snap","247","730026","0.0-5.0-4.0-15.0","","","[[""img/obj12.png"",""img/obj6.png"",""img/obj9.png""],[""img/obj7.png"",""img/obj2.png"",0],[""img/obj10.png"",0,0]]","","","1,2,2,2,1,4,1,1,6","43","","","","","","","","","","",""
"vsl-grid-scene-snap","248","733055","0.0-5.0-4.0-16.0","","","[[""img/obj12.png"",0,0],[""img/obj7.png"",""img/obj2.png"",0],[""img/obj10.png"",""img/obj5.png"",""img/obj3.png""]]","","","1,2,2,2,3,3,1,1,6","57","","","","","","","","","","",""
"vsl-grid-scene-snap","249","736078","0.0-5.0-4.0-17.0","","","[[""img/obj12.png"",0,""img/obj11.png""],[0,""img/obj2.png"",""img/obj8.png""],[0,""img/obj6.png"",""img/obj9.png""]]","","","3,1,1,2,3,4,1,1,6","94","","","","","","","","","","",""
"vsl-grid-scene-snap","250","739089","0.0-5.0-4.0-18.0","","","[[""img/obj6.png"",""img/obj9.png"",""img/obj11.png""],[0,""img/obj12.png"",""img/obj8.png""],[0,0,""img/obj2.png""]]","","","3,1,1,1,1,4,2,2,6","82","","","","","","","","","","",""
"vsl-grid-scene-snap","251","742104","0.0-5.0-4.0-19.0","","","[[""img/obj11.png"",0,0],[""img/obj8.png"",""img/obj1.png"",0],[""img/obj4.png"",""img/obj5.png"",""img/obj3.png""]]","","","1,1,1,2,3,3,2,2,5","16","","","","","","","","","","",""
"vsl-grid-scene-snap","252","745114","0.0-5.0-4.0-20.0","","","[[""img/obj12.png"",0,""img/obj7.png""],[0,""img/obj2.png"",""img/obj10.png""],[""img/obj6.png"",""img/obj9.png"",0]]","","","3,1,2,1,3,4,1,1,6","103","","","","","","","","","","",""
"vsl-grid-scene-snap","253","748131","0.0-5.0-4.0-21.0","","","[[""img/obj7.png"",0,0],[""img/obj10.png"",""img/obj12.png"",0],[""img/obj6.png"",""img/obj9.png"",""img/obj2.png""]]","","","1,1,2,1,3,4,2,2,6","35","","","","","","","","","","",""
"vsl-grid-scene-snap","254","751136","0.0-5.0-4.0-22.0","","","[[""img/obj11.png"",0,""img/obj1.png""],[""img/obj8.png"",""img/obj4.png"",0],[""img/obj6.png"",""img/obj9.png"",0]]","","","1,1,1,1,3,4,3,1,5","26","","","","","","","","","","",""
"vsl-grid-scene-snap","255","754139","0.0-5.0-4.0-23.0","","","[[""img/obj6.png"",""img/obj9.png"",""img/obj1.png""],[0,""img/obj4.png"",""img/obj11.png""],[0,0,""img/obj8.png""]]","","","3,2,1,1,1,4,3,1,5","118","","","","","","","","","","",""
"vsl-grid-scene-snap","256","757155","0.0-5.0-4.0-24.0","","","[[""img/obj6.png"",""img/obj9.png"",""img/obj1.png""],[""img/obj7.png"",""img/obj4.png"",0],[""img/obj10.png"",0,0]]","","","1,2,2,1,1,4,3,1,5","67","","","","","","","","","","",""
"vsl-grid-scene-snap","257","760173","0.0-5.0-4.0-25.0","","","[[""img/obj7.png"",""img/obj5.png"",""img/obj3.png""],[""img/obj10.png"",0,""img/obj1.png""],[0,""img/obj4.png"",0]]","","","1,1,2,2,1,3,3,2,5","1","","","","","","","","","","",""
"vsl-grid-scene-snap","258","763178","0.0-5.0-4.0-26.0","","","[[0,""img/obj12.png"",0],[""img/obj11.png"",0,""img/obj2.png""],[""img/obj8.png"",""img/obj6.png"",""img/obj9.png""]]","","","1,2,1,2,3,4,2,1,6","54","","","","","","","","","","",""
"vsl-grid-scene-snap","259","766181","0.0-5.0-4.0-27.0","","","[[0,0,""img/obj7.png""],[0,""img/obj1.png"",""img/obj10.png""],[""img/obj4.png"",""img/obj5.png"",""img/obj3.png""]]","","","3,1,2,2,3,3,2,2,5","85","","","","","","","","","","",""
"vsl-grid-scene-snap","260","769195","0.0-5.0-4.0-28.0","","","[[0,0,""img/obj1.png""],[""img/obj11.png"",""img/obj4.png"",0],[""img/obj8.png"",""img/obj5.png"",""img/obj3.png""]]","","","1,2,1,2,3,3,3,1,5","48","","","","","","","","","","",""
"vsl-grid-scene-snap","261","772207","0.0-5.0-4.0-29.0","","","[[""img/obj5.png"",""img/obj3.png"",0],[""img/obj7.png"",""img/obj12.png"",0],[""img/obj10.png"",0,""img/obj2.png""]]","","","1,2,2,1,1,3,2,2,6","69","","","","","","","","","","",""
"vsl-grid-scene-snap","262","775215","0.0-5.0-4.0-30.0","","","[[0,0,""img/obj11.png""],[0,""img/obj1.png"",""img/obj8.png""],[""img/obj4.png"",""img/obj5.png"",""img/obj3.png""]]","","","3,1,1,2,3,3,2,2,5","84","","","","","","","","","","",""
"vsl-grid-scene-snap","263","778224","0.0-5.0-4.0-31.0","","","[[""img/obj5.png"",""img/obj3.png"",0],[0,""img/obj1.png"",""img/obj7.png""],[""img/obj4.png"",0,""img/obj10.png""]]","","","3,2,2,1,1,3,2,2,5","109","","","","","","","","","","",""
"vsl-grid-scene-snap","264","781234","0.0-5.0-4.0-32.0","","","[[""img/obj7.png"",0,0],[""img/obj10.png"",""img/obj1.png"",0],[""img/obj4.png"",""img/obj6.png"",""img/obj9.png""]]","","","1,1,2,2,3,4,2,2,5","19","","","","","","","","","","",""
"vsl-grid-scene-snap","265","784243","0.0-5.0-4.0-33.0","","","[[""img/obj5.png"",""img/obj3.png"",""img/obj1.png""],[0,""img/obj4.png"",""img/obj7.png""],[0,0,""img/obj10.png""]]","","","3,2,2,1,1,3,3,1,5","117","","","","","","","","","","",""
"vsl-grid-scene-snap","266","787250","0.0-5.0-4.0-34.0","","","[[""img/obj5.png"",""img/obj3.png"",""img/obj7.png""],[""img/obj12.png"",0,""img/obj10.png""],[0,""img/obj2.png"",0]]","","","3,1,2,1,1,3,1,2,6","77","","","","","","","","","","",""
"vsl-grid-scene-snap","267","790255","0.0-5.0-4.0-35.0","","","[[""img/obj7.png"",""img/obj5.png"",""img/obj3.png""],[""img/obj10.png"",""img/obj12.png"",0],[0,0,""img/obj2.png""]]","","","1,1,2,2,1,3,2,2,6","9","","","","","","","","","","",""
"vsl-grid-scene-snap","268","793273","0.0-5.0-4.0-36.0","","","[[0,""img/obj1.png"",""img/obj11.png""],[""img/obj4.png"",0,""img/obj8.png""],[""img/obj6.png"",""img/obj9.png"",0]]","","","3,1,1,1,3,4,2,1,5","98","","","","","","","","","","",""
"vsl-grid-scene-snap","269","796275","0.0-5.0-4.0-37.0","","","[[""img/obj11.png"",0,0],[""img/obj8.png"",""img/obj12.png"",0],[""img/obj6.png"",""img/obj9.png"",""img/obj2.png""]]","","","1,1,1,1,3,4,2,2,6","34","","","","","","","","","","",""
"vsl-grid-scene-snap","270","799290","0.0-5.0-4.0-38.0","","","[[0,0,""img/obj7.png""],[0,""img/obj12.png"",""img/obj10.png""],[""img/obj6.png"",""img/obj9.png"",""img/obj2.png""]]","","","3,1,2,1,3,4,2,2,6","107","","","","","","","","","","",""
"vsl-grid-scene-snap","271","802302","0.0-5.0-4.0-39.0","","","[[""img/obj6.png"",""img/obj9.png"",""img/obj1.png""],[0,""img/obj4.png"",""img/obj7.png""],[0,0,""img/obj10.png""]]","","","3,2,2,1,1,4,3,1,5","119","","","","","","","","","","",""
"vsl-grid-scene-snap","272","805322","0.0-5.0-4.0-40.0","","","[[0,0,""img/obj1.png""],[0,""img/obj4.png"",""img/obj7.png""],[""img/obj6.png"",""img/obj9.png"",""img/obj10.png""]]","","","3,2,2,1,3,4,3,1,5","143","","","","","","","","","","",""
"vsl-grid-scene-snap","273","808335","0.0-5.0-4.0-41.0","","","[[0,""img/obj5.png"",""img/obj3.png""],[""img/obj11.png"",""img/obj12.png"",0],[""img/obj8.png"",0,""img/obj2.png""]]","","","1,2,1,2,1,3,2,2,6","44","","","","","","","","","","",""
"vsl-grid-scene-snap","274","811349","0.0-5.0-4.0-42.0","","","[[""img/obj5.png"",""img/obj3.png"",0],[""img/obj11.png"",0,""img/obj1.png""],[""img/obj8.png"",""img/obj4.png"",0]]","","","1,2,1,1,1,3,3,2,5","60","","","","","","","","","","",""
"vsl-grid-scene-snap","275","814357","0.0-5.0-4.0-43.0","","","[[0,""img/obj5.png"",""img/obj3.png""],[""img/obj12.png"",0,""img/obj11.png""],[0,""img/obj2.png"",""img/obj8.png""]]","","","3,2,1,2,1,3,1,2,6","124","","","","","","","","","","",""
"vsl-grid-scene-snap","276","817366","0.0-5.0-4.0-44.0","","","[[""img/obj11.png"",0,""img/obj1.png""],[""img/obj8.png"",""img/obj4.png"",0],[0,""img/obj6.png"",""img/obj9.png""]]","","","1,1,1,2,3,4,3,1,5","14","","","","","","","","","","",""
"vsl-grid-scene-snap","277","820380","0.0-5.0-4.0-45.0","","","[[""img/obj12.png"",0,0],[0,""img/obj2.png"",""img/obj11.png""],[""img/obj6.png"",""img/obj9.png"",""img/obj8.png""]]","","","3,2,1,1,3,4,1,1,6","138","","","","","","","","","","",""
"vsl-grid-scene-snap","278","823385","0.0-5.0-4.0-46.0","","","[[""img/obj7.png"",""img/obj6.png"",""img/obj9.png""],[""img/obj10.png"",0,""img/obj1.png""],[0,""img/obj4.png"",0]]","","","1,1,2,2,1,4,3,2,5","3","","","","","","","","","","",""
"vsl-grid-scene-snap","279","826400","0.0-5.0-4.0-47.0","","","[[""img/obj12.png"",0,""img/obj11.png""],[0,""img/obj2.png"",""img/obj8.png""],[0,""img/obj5.png"",""img/obj3.png""]]","","","3,1,1,2,3,3,1,1,6","92","","","","","","","","","","",""
"vsl-grid-attention-check","280","830423","0.0-5.0-5.0-0.0-0.0","","null","[[""img/square.png"",""img/square.png"",0],[""img/square.png"",""img/attention.png"",""img/square.png""],[0,0,""img/square.png""]]","","","","","null","","","","","","","","","",""
"vsl-grid-attention-check","281","833426","0.0-5.0-5.0-0.1-0.1","","null","[[""img/square.png"",""img/square.png"",0],[""img/square.png"",""img/attention.png"",0],[0,""img/square.png"",""img/square.png""]]","","","","","null","","","","","","","","","",""
"vsl-grid-attention-check","282","834113","0.0-5.0-5.0-0.2-0.2","","685.8000000119209","[[""img/square.png"",""img/square.png"",""img/square.png""],[0,""img/attention.png"",0],[""img/square.png"",""img/square.png"",0]]","","","","","32","","","","","","","","","",""
"html-keyboard-response","283","835115","0.0-5.0-5.0-1.0","","null"," ","","","","","null","","","","","","","","","",""
"vsl-grid-scene-snap","284","837123","0.0-5.0-6.0-0.0","","","[[""img/obj7.png"",0,""img/obj1.png""],[""img/obj10.png"",""img/obj4.png"",0],[0,""img/obj5.png"",""img/obj3.png""]]","","","1,1,2,2,3,3,3,1,5","13","","","","","","","","","","",""
"vsl-grid-scene-snap","285","840135","0.0-5.0-6.0-1.0","","","[[""img/obj12.png"",0,0],[""img/obj7.png"",""img/obj2.png"",0],[""img/obj10.png"",""img/obj6.png"",""img/obj9.png""]]","","","1,2,2,2,3,4,1,1,6","59","","","","","","","","","","",""
"vsl-grid-scene-snap","286","843147","0.0-5.0-6.0-2.0","","","[[""img/obj11.png"",""img/obj12.png"",0],[""img/obj8.png"",0,""img/obj2.png""],[0,""img/obj5.png"",""img/obj3.png""]]","","","1,1,1,2,3,3,2,1,6","20","","","","","","","","","","",""
"vsl-grid-scene-snap","287","846155","0.0-5.0-6.0-3.0","","","[[0,0,""img/obj1.png""],[""img/obj11.png"",""img/obj4.png"",0],[""img/obj8.png"",""img/obj6.png"",""img/obj9.png""]]","","","1,2,1,2,3,4,3,1,5","50","","","","","","","","","","",""
"vsl-grid-scene-snap","288","849158","0.0-5.0-6.0-4.0","","","[[""img/obj12.png"",0,""img/obj11.png""],[0,""img/obj2.png"",""img/obj8.png""],[""img/obj6.png"",""img/obj9.png"",0]]","","","3,1,1,1,3,4,1,1,6","102","","","","","","","","","","",""
"vsl-grid-scene-snap","289","852163","0.0-5.0-6.0-5.0","","","[[""img/obj11.png"",0,0],[""img/obj8.png"",""img/obj12.png"",0],[""img/obj5.png"",""img/obj3.png"",""img/obj2.png""]]","","","1,1,1,1,3,3,2,2,6","32","","","","","","","","","","",""
"vsl-grid-scene-snap","290","855171","0.0-5.0-6.0-6.0","","","[[0,""img/obj5.png"",""img/obj3.png""],[""img/obj7.png"",0,""img/obj1.png""],[""img/obj10.png"",""img/obj4.png"",0]]","","","1,2,2,2,1,3,3,2,5","37","","","","","","","","","","",""
"vsl-grid-scene-snap","291","858174","0.0-5.0-6.0-7.0","","","[[""img/obj11.png"",0,0],[""img/obj8.png"",""img/obj1.png"",0],[""img/obj4.png"",""img/obj6.png"",""img/obj9.png""]]","","","1,1,1,2,3,4,2,2,5","18","","","","","","","","","","",""
"vsl-grid-scene-snap","292","861183","0.0-5.0-6.0-8.0","","","[[0,""img/obj1.png"",""img/obj11.png""],[""img/obj4.png"",0,""img/obj8.png""],[0,""img/obj6.png"",""img/obj9.png""]]","","","3,1,1,2,3,4,2,1,5","90","","","","","","","","","","",""
"vsl-grid-scene-snap","293","864198","0.0-5.0-6.0-9.0","","","[[""img/obj6.png"",""img/obj9.png"",0],[""img/obj7.png"",""img/obj12.png"",0],[""img/obj10.png"",0,""img/obj2.png""]]","","","1,2,2,1,1,4,2,2,6","71","","","","","","","","","","",""
"vsl-grid-scene-snap","294","867211","0.0-5.0-6.0-10.0","","","[[0,""img/obj6.png"",""img/obj9.png""],[""img/obj7.png"",0,""img/obj1.png""],[""img/obj10.png"",""img/obj4.png"",0]]","","","1,2,2,2,1,4,3,2,5","39","","","","","","","","","","",""
"vsl-grid-scene-snap","295","870226","0.0-5.0-6.0-11.0","","","[[""img/obj12.png"",""img/obj5.png"",""img/obj3.png""],[0,""img/obj2.png"",""img/obj11.png""],[0,0,""img/obj8.png""]]","","","3,2,1,2,1,3,1,1,6","128","","","","","","","","","","",""
"vsl-grid-scene-snap","296","873238","0.0-5.0-6.0-12.0","","","[[""img/obj12.png"",0,""img/obj7.png""],[0,""img/obj2.png"",""img/obj10.png""],[""img/obj5.png"",""img/obj3.png"",0]]","","","3,1,2,1,3,3,1,1,6","101","","","","","","","","","","",""
"vsl-grid-scene-snap","297","876244","0.0-5.0-6.0-13.0","","","[[""img/obj12.png"",0,""img/obj7.png""],[0,""img/obj2.png"",""img/obj10.png""],[0,""img/obj6.png"",""img/obj9.png""]]","","","3,1,2,2,3,4,1,1,6","95","","","","","","","","","","",""
"vsl-grid-scene-snap","298","879267","0.0-5.0-6.0-14.0","","","[[""img/obj6.png"",""img/obj9.png"",0],[""img/obj12.png"",0,""img/obj11.png""],[0,""img/obj2.png"",""img/obj8.png""]]","","","3,2,1,1,1,4,1,2,6","114","","","","","","","","","","",""
"vsl-grid-scene-snap","299","882284","0.0-5.0-6.0-15.0","","","[[""img/obj7.png"",0,0],[""img/obj10.png"",""img/obj12.png"",0],[""img/obj5.png"",""img/obj3.png"",""img/obj2.png""]]","","","1,1,2,1,3,3,2,2,6","33","","","","","","","","","","",""
"vsl-grid-scene-snap","300","885302","0.0-5.0-6.0-16.0","","","[[""img/obj12.png"",""img/obj6.png"",""img/obj9.png""],[""img/obj11.png"",""img/obj2.png"",0],[""img/obj8.png"",0,0]]","","","1,2,1,2,1,4,1,1,6","42","","","","","","","","","","",""
"vsl-grid-scene-snap","301","888323","0.0-5.0-6.0-17.0","","","[[""img/obj6.png"",""img/obj9.png"",0],[""img/obj12.png"",0,""img/obj7.png""],[0,""img/obj2.png"",""img/obj10.png""]]","","","3,2,2,1,1,4,1,2,6","115","","","","","","","","","","",""
"vsl-grid-scene-snap","302","891342","0.0-5.0-6.0-18.0","","","[[""img/obj12.png"",""img/obj5.png"",""img/obj3.png""],[""img/obj7.png"",""img/obj2.png"",0],[""img/obj10.png"",0,0]]","","","1,2,2,2,1,3,1,1,6","41","","","","","","","","","","",""
"vsl-grid-scene-snap","303","894353","0.0-5.0-6.0-19.0","","","[[""img/obj5.png"",""img/obj3.png"",0],[0,""img/obj1.png"",""img/obj11.png""],[""img/obj4.png"",0,""img/obj8.png""]]","","","3,2,1,1,1,3,2,2,5","108","","","","","","","","","","",""
"vsl-grid-scene-snap","304","897365","0.0-5.0-6.0-20.0","","","[[0,""img/obj12.png"",0],[""img/obj11.png"",0,""img/obj2.png""],[""img/obj8.png"",""img/obj5.png"",""img/obj3.png""]]","","","1,2,1,2,3,3,2,1,6","52","","","","","","","","","","",""
"vsl-grid-scene-snap","305","900378","0.0-5.0-6.0-21.0","","","[[""img/obj5.png"",""img/obj3.png"",""img/obj7.png""],[0,""img/obj12.png"",""img/obj10.png""],[0,0,""img/obj2.png""]]","","","3,1,2,1,1,3,2,2,6","81","","","","","","","","","","",""
"vsl-grid-scene-snap","306","903395","0.0-5.0-6.0-22.0","","","[[""img/obj6.png"",""img/obj9.png"",0],[""img/obj7.png"",0,""img/obj1.png""],[""img/obj10.png"",""img/obj4.png"",0]]","","","1,2,2,1,1,4,3,2,5","63","","","","","","","","","","",""
"vsl-grid-scene-snap","307","906405","0.0-5.0-6.0-23.0","","","[[""img/obj5.png"",""img/obj3.png"",0],[""img/obj12.png"",0,""img/obj11.png""],[0,""img/obj2.png"",""img/obj8.png""]]","","","3,2,1,1,1,3,1,2,6","112","","","","","","","","","","",""
"vsl-grid-scene-snap","308","909410","0.0-5.0-6.0-24.0","","","[[0,""img/obj1.png"",""img/obj11.png""],[""img/obj4.png"",0,""img/obj8.png""],[""img/obj5.png"",""img/obj3.png"",0]]","","","3,1,1,1,3,3,2,1,5","96","","","","","","","","","","",""
"vsl-grid-scene-snap","309","912427","0.0-5.0-6.0-25.0","","","[[0,""img/obj1.png"",0],[""img/obj4.png"",0,""img/obj11.png""],[""img/obj5.png"",""img/obj3.png"",""img/obj8.png""]]","","","3,2,1,1,3,3,2,1,5","132","","","","","","","","","","",""
"vsl-grid-scene-snap","310","915443","0.0-5.0-6.0-26.0","","","[[""img/obj7.png"",""img/obj5.png"",""img/obj3.png""],[""img/obj10.png"",""img/obj1.png"",0],[""img/obj4.png"",0,0]]","","","1,1,2,2,1,3,2,2,5","5","","","","","","","","","","",""
"vsl-grid-scene-snap","311","918460","0.0-5.0-6.0-27.0","","","[[""img/obj7.png"",0,""img/obj1.png""],[""img/obj10.png"",""img/obj4.png"",0],[""img/obj6.png"",""img/obj9.png"",0]]","","","1,1,2,1,3,4,3,1,5","27","","","","","","","","","","",""
"vsl-grid-scene-snap","312","921473","0.0-5.0-6.0-28.0","","","[[0,""img/obj6.png"",""img/obj9.png""],[""img/obj11.png"",""img/obj12.png"",0],[""img/obj8.png"",0,""img/obj2.png""]]","","","1,2,1,2,1,4,2,2,6","46","","","","","","","","","","",""
"vsl-grid-scene-snap","313","924485","0.0-5.0-6.0-29.0","","","[[0,0,""img/obj1.png""],[0,""img/obj4.png"",""img/obj7.png""],[""img/obj5.png"",""img/obj3.png"",""img/obj10.png""]]","","","3,2,2,1,3,3,3,1,5","141","","","","","","","","","","",""
"vsl-grid-scene-snap","314","927488","0.0-5.0-6.0-30.0","","","[[""img/obj5.png"",""img/obj3.png"",0],[""img/obj11.png"",""img/obj12.png"",0],[""img/obj8.png"",0,""img/obj2.png""]]","","","1,2,1,1,1,3,2,2,6","68","","","","","","","","","","",""
"vsl-grid-scene-snap","315","930494","0.0-5.0-6.0-31.0","","","[[0,0,""img/obj1.png""],[0,""img/obj4.png"",""img/obj11.png""],[""img/obj6.png"",""img/obj9.png"",""img/obj8.png""]]","","","3,2,1,1,3,4,3,1,5","142","","","","","","","","","","",""
"vsl-grid-scene-snap","316","933518","0.0-5.0-6.0-32.0","","","[[0,""img/obj1.png"",""img/obj7.png""],[""img/obj4.png"",0,""img/obj10.png""],[""img/obj6.png"",""img/obj9.png"",0]]","","","3,1,2,1,3,4,2,1,5","99","","","","","","","","","","",""
"vsl-grid-scene-snap","317","936531","0.0-5.0-6.0-33.0","","","[[0,""img/obj5.png"",""img/obj3.png""],[""img/obj12.png"",0,""img/obj7.png""],[0,""img/obj2.png"",""img/obj10.png""]]","","","3,2,2,2,1,3,1,2,6","125","","","","","","","","","","",""
"vsl-grid-scene-snap","318","939533","0.0-5.0-6.0-34.0","","","[[0,""img/obj1.png"",""img/obj7.png""],[""img/obj4.png"",0,""img/obj10.png""],[0,""img/obj5.png"",""img/obj3.png""]]","","","3,1,2,2,3,3,2,1,5","89","","","","","","","","","","",""
"vsl-grid-scene-snap","319","942973","0.0-5.0-6.0-35.0","","","[[0,""img/obj5.png"",""img/obj3.png""],[""img/obj11.png"",0,""img/obj1.png""],[""img/obj8.png"",""img/obj4.png"",0]]","","","1,2,1,2,1,3,3,2,5","36","","","","","","","","","","",""
"vsl-grid-scene-snap","320","947977","0.0-5.0-6.0-36.0","","","[[0,0,""img/obj1.png""],[""img/obj7.png"",""img/obj4.png"",0],[""img/obj10.png"",""img/obj5.png"",""img/obj3.png""]]","","","1,2,2,2,3,3,3,1,5","49","","","","","","","","","","",""
"vsl-grid-scene-snap","321","952980","0.0-5.0-6.0-37.0","","","[[""img/obj11.png"",""img/obj12.png"",0],[""img/obj8.png"",0,""img/obj2.png""],[""img/obj5.png"",""img/obj3.png"",0]]","","","1,1,1,1,3,3,2,1,6","28","","","","","","","","","","",""
"vsl-grid-scene-snap","322","956979","0.0-5.0-6.0-38.0","","","[[""img/obj12.png"",""img/obj5.png"",""img/obj3.png""],[""img/obj11.png"",""img/obj2.png"",0],[""img/obj8.png"",0,0]]","","","1,2,1,2,1,3,1,1,6","40","","","","","","","","","","",""
"vsl-grid-scene-snap","323","959986","0.0-5.0-6.0-39.0","","","[[""img/obj11.png"",""img/obj6.png"",""img/obj9.png""],[""img/obj8.png"",""img/obj12.png"",0],[0,0,""img/obj2.png""]]","","","1,1,1,2,1,4,2,2,6","10","","","","","","","","","","",""
"vsl-grid-scene-snap","324","962996","0.0-5.0-6.0-40.0","","","[[""img/obj7.png"",""img/obj12.png"",0],[""img/obj10.png"",0,""img/obj2.png""],[""img/obj6.png"",""img/obj9.png"",0]]","","","1,1,2,1,3,4,2,1,6","31","","","","","","","","","","",""
"vsl-grid-scene-snap","325","966012","0.0-5.0-6.0-41.0","","","[[""img/obj12.png"",0,0],[0,""img/obj2.png"",""img/obj7.png""],[""img/obj6.png"",""img/obj9.png"",""img/obj10.png""]]","","","3,2,2,1,3,4,1,1,6","139","","","","","","","","","","",""
"vsl-grid-scene-snap","326","969040","0.0-5.0-6.0-42.0","","","[[""img/obj5.png"",""img/obj3.png"",0],[""img/obj12.png"",0,""img/obj7.png""],[0,""img/obj2.png"",""img/obj10.png""]]","","","3,2,2,1,1,3,1,2,6","113","","","","","","","","","","",""
"vsl-grid-scene-snap","327","972061","0.0-5.0-6.0-43.0","","","[[0,0,""img/obj11.png""],[0,""img/obj12.png"",""img/obj8.png""],[""img/obj5.png"",""img/obj3.png"",""img/obj2.png""]]","","","3,1,1,1,3,3,2,2,6","104","","","","","","","","","","",""
"vsl-grid-scene-snap","328","975072","0.0-5.0-6.0-44.0","","","[[0,""img/obj6.png"",""img/obj9.png""],[0,""img/obj1.png"",""img/obj11.png""],[""img/obj4.png"",0,""img/obj8.png""]]","","","3,2,1,2,1,4,2,2,5","122","","","","","","","","","","",""
"vsl-grid-scene-snap","329","978083","0.0-5.0-6.0-45.0","","","[[""img/obj12.png"",""img/obj6.png"",""img/obj9.png""],[0,""img/obj2.png"",""img/obj11.png""],[0,0,""img/obj8.png""]]","","","3,2,1,2,1,4,1,1,6","130","","","","","","","","","","",""
"vsl-grid-scene-snap","330","981090","0.0-5.0-6.0-46.0","","","[[0,0,""img/obj11.png""],[0,""img/obj1.png"",""img/obj8.png""],[""img/obj4.png"",""img/obj6.png"",""img/obj9.png""]]","","","3,1,1,2,3,4,2,2,5","86","","","","","","","","","","",""
"vsl-grid-scene-snap","331","984103","0.0-5.0-6.0-47.0","","","[[0,0,""img/obj7.png""],[0,""img/obj1.png"",""img/obj10.png""],[""img/obj4.png"",""img/obj6.png"",""img/obj9.png""]]","","","3,1,2,2,3,4,2,2,5","87","","","","","","","","","","",""
"vsl-grid-attention-check","332","988122","0.0-5.0-7.0-0.0-0.0","","null","[[""img/square.png"",""img/square.png"",0],[0,""img/attention.png"",""img/square.png""],[""img/square.png"",0,""img/square.png""]]","","","","","null","","","","","","","","","",""
"vsl-grid-attention-check","333","991125","0.0-5.0-7.0-0.1-0.1","","null","[[""img/square.png"",""img/square.png"",""img/square.png""],[""img/square.png"",""img/attention.png"",0],[0,0,""img/square.png""]]","","","","","null","","","","","","","","","",""
"vsl-grid-attention-check","334","994136","0.0-5.0-7.0-0.2-0.2","","null","[[0,""img/square.png"",""img/square.png""],[0,""img/attention.png"",""img/square.png""],[0,""img/square.png"",""img/square.png""]]","","","","","null","","","","","","","","","",""
"vsl-grid-attention-check","335","995744","0.0-5.0-7.0-0.3-0.3","","1607.3999999761581","[[""img/square.png"",""img/square.png"",""img/square.png""],[0,""img/attention.png"",""img/square.png""],[0,""img/square.png"",0]]","","","","","32","","","","","","","","","",""
"html-keyboard-response","336","996752","0.0-5.0-7.0-1.0","","null"," ","","","","","null","","","","","","","","","",""
"vsl-grid-scene-snap","337","998756","0.0-5.0-8.0-0.0","","","[[""img/obj5.png"",""img/obj3.png"",""img/obj1.png""],[0,""img/obj4.png"",""img/obj11.png""],[0,0,""img/obj8.png""]]","","","3,2,1,1,1,3,3,1,5","116","","","","","","","","","","",""
"vsl-grid-scene-snap","338","1001776","0.0-5.0-8.0-1.0","","","[[""img/obj6.png"",""img/obj9.png"",""img/obj7.png""],[0,""img/obj12.png"",""img/obj10.png""],[0,0,""img/obj2.png""]]","","","3,1,2,1,1,4,2,2,6","83","","","","","","","","","","",""
"vsl-grid-scene-snap","339","1004797","0.0-5.0-8.0-2.0","","","[[0,""img/obj1.png"",0],[""img/obj4.png"",0,""img/obj11.png""],[""img/obj6.png"",""img/obj9.png"",""img/obj8.png""]]","","","3,2,1,1,3,4,2,1,5","134","","","","","","","","","","",""
"vsl-grid-scene-snap","340","1007804","0.0-5.0-8.0-3.0","","","[[""img/obj12.png"",""img/obj6.png"",""img/obj9.png""],[0,""img/obj2.png"",""img/obj7.png""],[0,0,""img/obj10.png""]]","","","3,2,2,2,1,4,1,1,6","131","","","","","","","","","","",""
"vsl-grid-scene-snap","341","1010819","0.0-5.0-8.0-4.0","","","[[""img/obj11.png"",""img/obj6.png"",""img/obj9.png""],[""img/obj8.png"",0,""img/obj1.png""],[0,""img/obj4.png"",0]]","","","1,1,1,2,1,4,3,2,5","2","","","","","","","","","","",""
"vsl-grid-scene-snap","342","1013841","0.0-5.0-8.0-5.0","","","[[0,""img/obj6.png"",""img/obj9.png""],[""img/obj7.png"",""img/obj12.png"",0],[""img/obj10.png"",0,""img/obj2.png""]]","","","1,2,2,2,1,4,2,2,6","47","","","","","","","","","","",""
"vsl-grid-scene-snap","343","1016851","0.0-5.0-8.0-6.0","","","[[""img/obj12.png"",0,""img/obj7.png""],[0,""img/obj2.png"",""img/obj10.png""],[0,""img/obj5.png"",""img/obj3.png""]]","","","3,1,2,2,3,3,1,1,6","93","","","","","","","","","","",""
"vsl-grid-scene-snap","344","1019854","0.0-5.0-8.0-7.0","","","[[""img/obj6.png"",""img/obj9.png"",0],[0,""img/obj1.png"",""img/obj7.png""],[""img/obj4.png"",0,""img/obj10.png""]]","","","3,2,2,1,1,4,2,2,5","111","","","","","","","","","","",""
"vsl-grid-scene-snap","345","1022876","0.0-5.0-8.0-8.0","","","[[0,""img/obj12.png"",0],[""img/obj7.png"",0,""img/obj2.png""],[""img/obj10.png"",""img/obj5.png"",""img/obj3.png""]]","","","1,2,2,2,3,3,2,1,6","53","","","","","","","","","","",""
"vsl-grid-scene-snap","346","1025884","0.0-5.0-8.0-9.0","","","[[""img/obj11.png"",""img/obj5.png"",""img/obj3.png""],[""img/obj8.png"",""img/obj12.png"",0],[0,0,""img/obj2.png""]]","","","1,1,1,2,1,3,2,2,6","8","","","","","","","","","","",""
"vsl-grid-scene-snap","347","1028887","0.0-5.0-8.0-10.0","","","[[""img/obj11.png"",""img/obj12.png"",0],[""img/obj8.png"",0,""img/obj2.png""],[0,""img/obj6.png"",""img/obj9.png""]]","","","1,1,1,2,3,4,2,1,6","22","","","","","","","","","","",""
"vsl-grid-scene-snap","348","1031889","0.0-5.0-8.0-11.0","","","[[""img/obj11.png"",""img/obj12.png"",0],[""img/obj8.png"",0,""img/obj2.png""],[""img/obj6.png"",""img/obj9.png"",0]]","","","1,1,1,1,3,4,2,1,6","30","","","","","","","","","","",""
"vsl-grid-scene-snap","349","1034902","0.0-5.0-8.0-12.0","","","[[0,""img/obj1.png"",0],[""img/obj4.png"",0,""img/obj7.png""],[""img/obj6.png"",""img/obj9.png"",""img/obj10.png""]]","","","3,2,2,1,3,4,2,1,5","135","","","","","","","","","","",""
"vsl-grid-scene-snap","350","1037918","0.0-5.0-8.0-13.0","","","[[""img/obj7.png"",0,""img/obj1.png""],[""img/obj10.png"",""img/obj4.png"",0],[0,""img/obj6.png"",""img/obj9.png""]]","","","1,1,2,2,3,4,3,1,5","15","","","","","","","","","","",""
"vsl-grid-scene-snap","351","1040924","0.0-5.0-8.0-14.0","","","[[0,""img/obj5.png"",""img/obj3.png""],[0,""img/obj1.png"",""img/obj11.png""],[""img/obj4.png"",0,""img/obj8.png""]]","","","3,2,1,2,1,3,2,2,5","120","","","","","","","","","","",""
"vsl-grid-scene-snap","352","1043938","0.0-5.0-8.0-15.0","","","[[0,0,""img/obj1.png""],[""img/obj7.png"",""img/obj4.png"",0],[""img/obj10.png"",""img/obj6.png"",""img/obj9.png""]]","","","1,2,2,2,3,4,3,1,5","51","","","","","","","","","","",""
"vsl-grid-scene-snap","353","1046949","0.0-5.0-8.0-16.0","","","[[0,0,""img/obj1.png""],[0,""img/obj4.png"",""img/obj11.png""],[""img/obj5.png"",""img/obj3.png"",""img/obj8.png""]]","","","3,2,1,1,3,3,3,1,5","140","","","","","","","","","","",""
"vsl-grid-scene-snap","354","1049962","0.0-5.0-8.0-17.0","","","[[""img/obj5.png"",""img/obj3.png"",""img/obj11.png""],[0,""img/obj12.png"",""img/obj8.png""],[0,0,""img/obj2.png""]]","","","3,1,1,1,1,3,2,2,6","80","","","","","","","","","","",""
"vsl-grid-scene-snap","355","1052988","0.0-5.0-8.0-18.0","","","[[""img/obj7.png"",""img/obj6.png"",""img/obj9.png""],[""img/obj10.png"",""img/obj12.png"",0],[0,0,""img/obj2.png""]]","","","1,1,2,2,1,4,2,2,6","11","","","","","","","","","","",""
"vsl-grid-scene-snap","356","1056001","0.0-5.0-8.0-19.0","","","[[""img/obj11.png"",""img/obj5.png"",""img/obj3.png""],[""img/obj8.png"",""img/obj1.png"",0],[""img/obj4.png"",0,0]]","","","1,1,1,2,1,3,2,2,5","4","","","","","","","","","","",""
"vsl-grid-scene-snap","357","1059013","0.0-5.0-8.0-20.0","","","[[""img/obj5.png"",""img/obj3.png"",0],[""img/obj7.png"",0,""img/obj1.png""],[""img/obj10.png"",""img/obj4.png"",0]]","","","1,2,2,1,1,3,3,2,5","61","","","","","","","","","","",""
"vsl-grid-scene-snap","358","1062023","0.0-5.0-8.0-21.0","","","[[""img/obj5.png"",""img/obj3.png"",""img/obj7.png""],[0,""img/obj1.png"",""img/obj10.png""],[""img/obj4.png"",0,0]]","","","3,1,2,1,1,3,2,2,5","73","","","","","","","","","","",""
"vsl-grid-scene-snap","359","1065025","0.0-5.0-8.0-22.0","","","[[0,""img/obj1.png"",""img/obj7.png""],[""img/obj4.png"",0,""img/obj10.png""],[""img/obj5.png"",""img/obj3.png"",0]]","","","3,1,2,1,3,3,2,1,5","97","","","","","","","","","","",""
"vsl-grid-scene-snap","360","1068031","0.0-5.0-8.0-23.0","","","[[""img/obj7.png"",0,""img/obj1.png""],[""img/obj10.png"",""img/obj4.png"",0],[""img/obj5.png"",""img/obj3.png"",0]]","","","1,1,2,1,3,3,3,1,5","25","","","","","","","","","","",""
"vsl-grid-scene-snap","361","1071042","0.0-5.0-8.0-24.0","","","[[0,""img/obj5.png"",""img/obj3.png""],[""img/obj7.png"",""img/obj12.png"",0],[""img/obj10.png"",0,""img/obj2.png""]]","","","1,2,2,2,1,3,2,2,6","45","","","","","","","","","","",""
"vsl-grid-scene-snap","362","1074053","0.0-5.0-8.0-25.0","","","[[0,""img/obj5.png"",""img/obj3.png""],[0,""img/obj1.png"",""img/obj7.png""],[""img/obj4.png"",0,""img/obj10.png""]]","","","3,2,2,2,1,3,2,2,5","121","","","","","","","","","","",""
"vsl-grid-scene-snap","363","1077058","0.0-5.0-8.0-26.0","","","[[""img/obj12.png"",0,0],[""img/obj11.png"",""img/obj2.png"",0],[""img/obj8.png"",""img/obj6.png"",""img/obj9.png""]]","","","1,2,1,2,3,4,1,1,6","58","","","","","","","","","","",""
"vsl-grid-scene-snap","364","1080060","0.0-5.0-8.0-27.0","","","[[""img/obj11.png"",""img/obj5.png"",""img/obj3.png""],[""img/obj8.png"",0,""img/obj1.png""],[0,""img/obj4.png"",0]]","","","1,1,1,2,1,3,3,2,5","0","","","","","","","","","","",""
"vsl-grid-scene-snap","365","1083072","0.0-5.0-8.0-28.0","","","[[0,""img/obj1.png"",""img/obj11.png""],[""img/obj4.png"",0,""img/obj8.png""],[0,""img/obj5.png"",""img/obj3.png""]]","","","3,1,1,2,3,3,2,1,5","88","","","","","","","","","","",""
"vsl-grid-scene-snap","366","1086092","0.0-5.0-8.0-29.0","","","[[""img/obj6.png"",""img/obj9.png"",0],[""img/obj11.png"",""img/obj12.png"",0],[""img/obj8.png"",0,""img/obj2.png""]]","","","1,2,1,1,1,4,2,2,6","70","","","","","","","","","","",""
"vsl-grid-scene-snap","367","1089101","0.0-5.0-8.0-30.0","","","[[""img/obj12.png"",""img/obj5.png"",""img/obj3.png""],[0,""img/obj2.png"",""img/obj7.png""],[0,0,""img/obj10.png""]]","","","3,2,2,2,1,3,1,1,6","129","","","","","","","","","","",""
"vsl-grid-scene-snap","368","1092115","0.0-5.0-8.0-31.0","","","[[""img/obj6.png"",""img/obj9.png"",""img/obj11.png""],[0,""img/obj1.png"",""img/obj8.png""],[""img/obj4.png"",0,0]]","","","3,1,1,1,1,4,2,2,5","74","","","","","","","","","","",""
"vsl-grid-scene-snap","369","1095124","0.0-5.0-8.0-32.0","","","[[""img/obj12.png"",0,0],[0,""img/obj2.png"",""img/obj11.png""],[""img/obj5.png"",""img/obj3.png"",""img/obj8.png""]]","","","3,2,1,1,3,3,1,1,6","136","","","","","","","","","","",""
"vsl-grid-scene-snap","370","1098126","0.0-5.0-8.0-33.0","","","[[""img/obj11.png"",""img/obj6.png"",""img/obj9.png""],[""img/obj8.png"",""img/obj1.png"",0],[""img/obj4.png"",0,0]]","","","1,1,1,2,1,4,2,2,5","6","","","","","","","","","","",""
"vsl-grid-scene-snap","371","1101137","0.0-5.0-8.0-34.0","","","[[""img/obj6.png"",""img/obj9.png"",""img/obj1.png""],[""img/obj11.png"",""img/obj4.png"",0],[""img/obj8.png"",0,0]]","","","1,2,1,1,1,4,3,1,5","66","","","","","","","","","","",""
"vsl-grid-scene-snap","372","1104161","0.0-5.0-8.0-35.0","","","[[""img/obj6.png"",""img/obj9.png"",""img/obj7.png""],[""img/obj12.png"",0,""img/obj10.png""],[0,""img/obj2.png"",0]]","","","3,1,2,1,1,4,1,2,6","79","","","","","","","","","","",""
"vsl-grid-scene-snap","373","1107165","0.0-5.0-8.0-36.0","","","[[0,""img/obj6.png"",""img/obj9.png""],[""img/obj12.png"",0,""img/obj7.png""],[0,""img/obj2.png"",""img/obj10.png""]]","","","3,2,2,2,1,4,1,2,6","127","","","","","","","","","","",""
"vsl-grid-scene-snap","374","1110190","0.0-5.0-8.0-37.0","","","[[""img/obj7.png"",""img/obj12.png"",0],[""img/obj10.png"",0,""img/obj2.png""],[""img/obj5.png"",""img/obj3.png"",0]]","","","1,1,2,1,3,3,2,1,6","29","","","","","","","","","","",""
"vsl-grid-scene-snap","375","1113198","0.0-5.0-8.0-38.0","","","[[0,0,""img/obj11.png""],[0,""img/obj12.png"",""img/obj8.png""],[""img/obj6.png"",""img/obj9.png"",""img/obj2.png""]]","","","3,1,1,1,3,4,2,2,6","106","","","","","","","","","","",""
"vsl-grid-scene-snap","376","1116217","0.0-5.0-8.0-39.0","","","[[""img/obj12.png"",0,""img/obj11.png""],[0,""img/obj2.png"",""img/obj8.png""],[""img/obj5.png"",""img/obj3.png"",0]]","","","3,1,1,1,3,3,1,1,6","100","","","","","","","","","","",""
"vsl-grid-scene-snap","377","1119228","0.0-5.0-8.0-40.0","","","[[""img/obj11.png"",0,""img/obj1.png""],[""img/obj8.png"",""img/obj4.png"",0],[""img/obj5.png"",""img/obj3.png"",0]]","","","1,1,1,1,3,3,3,1,5","24","","","","","","","","","","",""
"vsl-grid-scene-snap","378","1122245","0.0-5.0-8.0-41.0","","","[[0,""img/obj6.png"",""img/obj9.png""],[""img/obj11.png"",0,""img/obj1.png""],[""img/obj8.png"",""img/obj4.png"",0]]","","","1,2,1,2,1,4,3,2,5","38","","","","","","","","","","",""
"vsl-grid-scene-snap","379","1125260","0.0-5.0-8.0-42.0","","","[[""img/obj6.png"",""img/obj9.png"",0],[0,""img/obj1.png"",""img/obj11.png""],[""img/obj4.png"",0,""img/obj8.png""]]","","","3,2,1,1,1,4,2,2,5","110","","","","","","","","","","",""
"vsl-grid-scene-snap","380","1128273","0.0-5.0-8.0-43.0","","","[[0,""img/obj6.png"",""img/obj9.png""],[0,""img/obj1.png"",""img/obj7.png""],[""img/obj4.png"",0,""img/obj10.png""]]","","","3,2,2,2,1,4,2,2,5","123","","","","","","","","","","",""
"vsl-grid-scene-snap","381","1131300","0.0-5.0-8.0-44.0","","","[[0,""img/obj1.png"",0],[""img/obj4.png"",0,""img/obj7.png""],[""img/obj5.png"",""img/obj3.png"",""img/obj10.png""]]","","","3,2,2,1,3,3,2,1,5","133","","","","","","","","","","",""
"vsl-grid-scene-snap","382","1134309","0.0-5.0-8.0-45.0","","","[[0,""img/obj6.png"",""img/obj9.png""],[""img/obj12.png"",0,""img/obj11.png""],[0,""img/obj2.png"",""img/obj8.png""]]","","","3,2,1,2,1,4,1,2,6","126","","","","","","","","","","",""
"vsl-grid-scene-snap","383","1137317","0.0-5.0-8.0-46.0","","","[[0,0,""img/obj7.png""],[0,""img/obj12.png"",""img/obj10.png""],[""img/obj5.png"",""img/obj3.png"",""img/obj2.png""]]","","","3,1,2,1,3,3,2,2,6","105","","","","","","","","","","",""
"vsl-grid-scene-snap","384","1140321","0.0-5.0-8.0-47.0","","","[[""img/obj5.png"",""img/obj3.png"",""img/obj1.png""],[""img/obj11.png"",""img/obj4.png"",0],[""img/obj8.png"",0,0]]","","","1,2,1,1,1,3,3,1,5","64","","","","","","","","","","",""
"vsl-grid-attention-check","385","1144326","0.0-5.0-9.0-0.0-0.0","","null","[[""img/square.png"",""img/square.png"",""img/square.png""],[0,""img/attention.png"",""img/square.png""],[""img/square.png"",0,0]]","","","","","null","","","","","","","","","",""
"vsl-grid-attention-check","386","1147329","0.0-5.0-9.0-0.1-0.1","","null","[[0,""img/square.png"",0],[0,""img/attention.png"",""img/square.png""],[""img/square.png"",""img/square.png"",""img/square.png""]]","","","","","null","","","","","","","","","",""
"vsl-grid-attention-check","387","1150335","0.0-5.0-9.0-0.2-0.2","","null","[[0,0,""img/square.png""],[""img/square.png"",""img/attention.png"",""img/square.png""],[0,""img/square.png"",""img/square.png""]]","","","","","null","","","","","","","","","",""
"vsl-grid-attention-check","388","1152192","0.0-5.0-9.0-0.3-0.3","","1854.2999999821186","[[""img/square.png"",""img/square.png"",0],[""img/square.png"",""img/attention.png"",""img/square.png""],[0,""img/square.png"",0]]","","","","","32","","","","","","","","","",""
"html-keyboard-response","389","1153200","0.0-5.0-9.0-1.0","","null"," ","","","","","null","","","","","","","","","",""
"vsl-grid-scene-snap","390","1155206","0.0-5.0-10.0-0.0","","","[[0,""img/obj12.png"",0],[""img/obj7.png"",0,""img/obj2.png""],[""img/obj10.png"",""img/obj6.png"",""img/obj9.png""]]","","","1,2,2,2,3,4,2,1,6","55","","","","","","","","","","",""
"vsl-grid-scene-snap","391","1158221","0.0-5.0-10.0-1.0","","","[[""img/obj12.png"",0,0],[0,""img/obj2.png"",""img/obj7.png""],[""img/obj5.png"",""img/obj3.png"",""img/obj10.png""]]","","","3,2,2,1,3,3,1,1,6","137","","","","","","","","","","",""
"vsl-grid-scene-snap","392","1161226","0.0-5.0-10.0-2.0","","","[[""img/obj7.png"",""img/obj6.png"",""img/obj9.png""],[""img/obj10.png"",""img/obj1.png"",0],[""img/obj4.png"",0,0]]","","","1,1,2,2,1,4,2,2,5","7","","","","","","","","","","",""
"vsl-grid-scene-snap","393","1164228","0.0-5.0-10.0-3.0","","","[[""img/obj5.png"",""img/obj3.png"",""img/obj1.png""],[""img/obj7.png"",""img/obj4.png"",0],[""img/obj10.png"",0,0]]","","","1,2,2,1,1,3,3,1,5","65","","","","","","","","","","",""
"vsl-grid-scene-snap","394","1167233","0.0-5.0-10.0-4.0","","","[[""img/obj6.png"",""img/obj9.png"",0],[""img/obj11.png"",0,""img/obj1.png""],[""img/obj8.png"",""img/obj4.png"",0]]","","","1,2,1,1,1,4,3,2,5","62","","","","","","","","","","",""
"vsl-grid-scene-snap","395","1170246","0.0-5.0-10.0-5.0","","","[[""img/obj6.png"",""img/obj9.png"",""img/obj7.png""],[0,""img/obj1.png"",""img/obj10.png""],[""img/obj4.png"",0,0]]","","","3,1,2,1,1,4,2,2,5","75","","","","","","","","","","",""
